aX,aY,aZ,gX,gY,gZ
-0.206,1.468,-0.905,-142.395,-71.960,-165.771
-0.147,1.253,-0.893,-188.232,-171.875,-256.531
-0.009,0.914,-0.707,-177.734,-214.294,-268.311
0.044,0.759,-0.444,-79.346,-259.033,-317.871
0.163,0.075,0.124,31.982,-249.817,-365.601
0.214,-0.396,0.282,156.555,-230.896,-403.748
0.321,-1.193,0.652,311.035,-230.713,-412.720
0.441,-1.613,1.015,303.711,-256.470,-394.531
0.667,-2.050,1.575,95.215,-329.407,-255.493
1.345,-1.512,2.929,-84.961,-336.792,-123.657
1.322,-0.456,3.195,-228.333,-194.153,32.104
0.615,0.338,2.221,-76.721,-58.716,5.737
0.489,-0.248,1.577,74.219,57.556,-45.105
0.603,-0.936,1.281,-62.744,126.404,-53.955
0.696,-1.360,1.263,-209.351,127.808,2.014
0.664,-1.006,1.275,-258.118,157.227,135.742
0.763,-0.253,1.519,-236.328,183.411,164.124
0.789,-0.202,1.523,-282.654,260.132,164.001
0.720,-0.141,1.157,-319.031,289.612,171.204
0.603,0.003,0.927,-329.956,309.143,182.739
0.480,0.159,0.664,-297.363,339.844,183.594
0.276,0.260,0.128,-273.682,350.159,170.288
0.160,0.201,-0.151,-208.435,372.620,158.875
-0.095,0.233,-0.863,-167.419,382.751,165.710
-0.210,0.376,-1.251,-120.178,379.639,172.852
-0.409,0.746,-1.824,-5.066,314.636,153.015
-0.391,0.874,-1.977,47.913,258.667,122.925
-0.296,1.028,-2.012,79.590,112.488,56.946
-0.182,1.235,-1.630,87.524,41.565,13.000
-0.131,1.114,-1.350,136.963,-36.865,-75.073
0.006,0.694,-0.984,158.020,-49.927,-94.849
0.036,0.550,-0.944,161.011,-55.847,-95.947
0.122,0.511,-0.927,137.634,-79.712,-76.233
0.486,0.545,-0.634,118.896,-104.431,-74.280
0.654,0.554,-0.401,80.383,-139.343,-86.060
0.922,0.506,0.202,88.257,-141.296,-95.276
1.020,0.406,0.513,85.571,-106.323,-101.868
1.173,0.142,0.726,69.031,-70.862,-87.830
1.230,0.061,0.613,57.434,-34.607,-61.584
1.218,0.034,0.460,37.781,3.418,1.160
1.154,0.192,0.210,28.076,7.446,31.311
1.089,0.397,0.101,31.677,8.484,65.796
0.893,0.785,-0.095,19.592,1.770,56.641
0.814,0.840,-0.151,-10.010,-10.132,28.381
0.735,0.765,-0.166,-45.959,-41.382,-46.509
0.701,0.411,-0.146,-18.127,-59.937,-50.171
0.756,0.469,-0.162,12.817,-96.375,2.747
0.812,0.740,-0.132,21.057,-109.558,-0.366
0.776,0.809,0.057,-171.631,-134.155,-3.418
0.706,0.811,0.097,-313.843,-125.671,0.061
0.691,0.563,-0.051,-348.816,-99.915,-23.132
0.692,0.193,-0.201,-227.051,-69.275,-50.903
0.901,0.028,-0.150,-149.719,-81.055,-5.859
0.968,0.418,0.100,51.941,-86.121,121.582
0.804,1.269,0.351,173.096,-58.533,132.690
0.713,1.329,0.275,255.859,-7.568,20.386
0.634,0.773,0.111,167.664,1.038,-43.091
0.607,0.450,0.089,42.786,7.629,-71.838
0.620,0.316,0.082,-77.637,30.579,-33.325
0.759,0.404,0.069,-48.462,52.612,-6.836
0.824,0.458,-0.017,-8.728,99.182,18.616
0.875,0.646,-0.191,-12.451,99.365,25.574
0.876,0.778,-0.075,0.732,82.275,30.029
0.839,0.844,0.076,18.555,53.467,8.362
0.726,0.685,-0.043,4.028,54.138,-19.043
0.725,0.533,-0.217,-40.405,25.452,-50.964
0.728,0.356,-0.235,-56.702,-4.761,-43.152
0.734,0.383,-0.151,-42.419,-35.095,-13.489
0.820,0.526,-0.123,-27.405,-36.194,-5.493
0.846,0.568,-0.111,-20.569,-39.551,-3.601
0.870,0.599,-0.051,-23.926,-47.668,-8.240
0.896,0.620,0.060,-23.987,-41.504,-10.376
0.864,0.599,0.061,-7.568,-16.479,-12.024
0.784,0.531,0.045,2.197,-4.333,-11.169
0.802,0.521,0.004,-14.954,20.264,-4.944
0.809,0.539,-0.081,-25.330,26.001,-1.831
0.817,0.541,-0.064,-27.771,26.489,-0.305
0.827,0.519,-0.063,-20.386,30.273,0.732
0.838,0.512,-0.132,-6.775,29.724,4.456
0.840,0.567,-0.133,-3.906,15.686,7.812
0.812,0.577,-0.101,-4.150,10.376,1.709
0.814,0.530,-0.108,-4.700,6.348,-5.859
0.808,0.497,-0.120,-6.775,3.479,-3.052
0.807,0.505,-0.095,-2.808,1.404,0.854
0.793,0.519,-0.056,29.724,6.592,8.118
0.754,0.535,-0.018,55.603,14.099,11.841
0.764,0.571,-0.047,64.392,28.687,14.282
0.812,0.636,-0.087,47.913,30.151,11.169
0.850,0.640,-0.112,21.179,29.358,5.554
0.891,0.617,-0.137,-21.118,20.691,-6.958
0.857,0.535,-0.126,-22.461,12.817,-7.935
0.804,0.526,-0.117,2.441,3.479,1.404
0.813,0.602,-0.133,11.108,-0.671,2.930
0.833,0.616,-0.107,3.845,-11.841,-4.578
0.807,0.554,-0.063,-6.226,-12.207,-7.629
0.732,0.508,-0.052,-11.475,-9.216,-7.568
0.662,0.482,-0.046,1.587,3.540,0.916
0.709,0.549,-0.111,4.456,11.230,4.517
0.761,0.572,-0.135,-11.047,13.245,1.709
0.814,0.562,-0.113,-16.296,10.315,-0.549
0.836,0.563,-0.101,-3.601,6.531,-0.488
0.887,0.565,-0.116,1.892,3.906,-0.671
0.894,0.543,-0.132,1.038,0.183,-1.709
0.849,0.516,-0.134,-6.958,-8.179,0.671
0.777,0.545,-0.095,-8.179,-10.010,5.066
0.777,0.573,-0.090,-14.832,-8.728,6.470
0.808,0.559,-0.068,-15.198,-7.507,5.005
0.828,0.551,-0.092,-17.883,-3.235,5.127
0.814,0.553,-0.099,-14.160,-3.845,6.287
0.816,0.554,-0.084,-7.874,-3.235,7.812
0.813,0.564,-0.090,6.531,1.038,10.986
0.802,0.570,-0.103,12.146,1.953,11.719
0.800,0.571,-0.103,14.526,4.333,15.503
0.774,0.580,-0.093,14.465,6.531,18.677
0.758,0.599,-0.095,15.259,9.521,20.813
0.731,0.619,-0.108,8.728,15.564,15.625
0.656,0.602,-0.109,0.793,17.212,10.132
0.682,0.587,-0.105,-2.502,21.973,4.883
0.834,0.592,-0.126,-4.150,21.912,3.601

1.167,0.858,-0.777,1.099,-14.832,49.194
1.202,0.942,-0.819,-5.554,-13.550,49.438
1.200,0.980,-0.859,-5.737,-17.822,40.039
1.164,0.916,-0.866,1.038,-26.672,4.700
0.968,0.721,-0.931,7.935,-23.071,-18.494
0.837,0.632,-1.033,15.503,-16.907,-41.809
0.719,0.560,-1.176,25.513,-14.587,-71.655
0.614,0.472,-1.472,24.658,-21.973,-69.702
0.619,0.436,-1.552,7.874,-51.819,-35.828
0.616,0.402,-1.426,-2.930,-72.205,-13.733
0.618,0.406,-1.293,-8.789,-98.022,4.211
0.628,0.422,-1.164,-1.465,-157.471,26.184
0.641,0.437,-0.937,10.376,-182.434,38.208
0.678,0.405,-0.843,34.729,-209.106,44.617
0.687,0.315,-0.673,35.645,-210.693,31.128
0.579,0.289,-0.554,22.583,-211.853,-8.057
0.124,0.238,-0.121,18.616,-217.834,-24.353
-0.148,0.184,0.172,22.278,-223.999,-41.504
-0.381,0.110,0.489,60.852,-216.919,-89.172
-0.593,-0.057,1.014,88.135,-203.918,-110.718
-0.670,-0.093,1.143,88.196,-200.745,-122.437
-0.873,0.144,1.463,43.945,-222.778,-98.267
-0.841,0.442,1.774,-70.557,-288.025,9.888
-0.051,0.773,2.349,-95.459,-306.946,50.110
0.712,0.642,2.691,-92.285,-305.786,56.274
1.712,0.350,3.043,-39.490,-215.088,4.211
2.717,-0.313,2.495,-17.517,-125.244,-23.560
1.893,-0.340,1.650,-7.446,69.580,-68.970
-0.075,0.040,0.472,-0.183,114.563,-72.693
-0.292,0.160,0.257,18.005,66.040,-23.132
0.021,0.157,0.311,10.193,36.255,0.366
0.155,0.135,0.506,1.892,27.222,1.770
0.248,0.151,0.686,32.532,34.241,-23.376
0.391,0.268,0.816,58.472,34.851,-25.635
0.429,0.315,0.819,70.862,29.968,-20.630
0.534,0.291,0.929,59.265,28.992,-19.836
0.621,0.217,1.040,47.913,29.541,-16.785
0.710,0.123,1.174,53.284,44.434,-5.432
0.740,0.057,1.386,66.589,64.880,-2.319
0.736,0.123,1.387,85.571,100.037,25.391
0.842,0.305,1.339,79.163,108.154,60.120
0.821,0.280,1.436,57.739,119.568,99.670
0.736,0.181,1.536,-4.456,161.743,131.348
0.354,0.088,1.585,-19.592,185.974,135.376
0.183,0.183,1.465,-11.658,221.313,123.169
0.234,0.495,0.892,9.827,220.520,111.450
0.355,0.601,0.520,26.794,215.149,91.125
0.470,0.590,0.158,2.808,205.627,31.982
0.552,0.179,-0.175,-37.231,204.956,7.935
0.466,-0.055,-0.073,-104.126,221.436,0.610
0.334,-0.071,0.016,-90.942,216.248,23.071
0.370,0.170,-0.108,-22.888,170.227,94.604
0.549,0.778,-0.350,-9.033,141.663,119.690
0.617,0.964,-0.446,-14.221,120.178,119.080
0.641,1.009,-0.495,-67.871,116.882,38.391
0.552,0.790,-0.534,-96.130,120.605,-6.042
0.512,0.634,-0.617,-111.938,111.572,-39.917
0.565,0.471,-0.885,-97.717,97.229,-38.940
0.609,0.496,-1.039,-73.547,72.632,-36.865
0.613,0.554,-1.155,-36.194,16.541,-48.706
0.580,0.625,-1.201,-25.391,-5.371,-62.744
0.582,0.604,-1.207,-1.160,-31.311,-96.985
0.723,0.457,-1.192,4.333,-33.203,-115.540
0.759,0.328,-1.183,-3.540,-22.583,-144.043
0.836,0.054,-1.211,-5.615,-12.939,-146.118
0.878,0.002,-1.179,-2.869,-5.981,-126.892
0.948,0.113,-0.959,2.808,-16.785,-41.504
1.015,0.198,-0.791,6.531,-28.503,-1.221
1.096,0.279,-0.611,24.414,-43.640,31.311
1.207,0.438,-0.289,32.959,-42.542,31.433
1.232,0.501,-0.170,37.048,-27.649,29.175
1.254,0.576,-0.010,35.461,-19.470,27.466
1.248,0.588,0.031,32.715,-12.390,24.536
1.218,0.578,0.048,18.738,1.831,14.343
1.098,0.498,0.017,8.179,9.705,8.118
1.021,0.438,-0.026,-7.996,21.851,-5.188
0.876,0.308,-0.131,-9.399,24.292,-11.475
0.819,0.257,-0.177,-4.456,22.522,-18.311
0.753,0.190,-0.233,-1.282,18.433,-17.822
0.743,0.181,-0.247,1.953,13.184,-15.259
0.745,0.191,-0.259,6.958,1.587,-5.310
0.778,0.228,-0.259,6.348,-2.991,1.099
0.801,0.245,-0.247,5.493,-7.385,9.644
0.836,0.300,-0.235,8.545,-8.301,9.277
0.851,0.340,-0.232,12.146,-9.766,7.324
0.892,0.405,-0.209,14.526,-14.221,5.615
0.916,0.421,-0.191,13.367,-15.869,4.822
0.940,0.420,-0.172,8.667,-16.113,-0.061
0.990,0.381,-0.135,6.165,-14.526,-1.953
1.005,0.364,-0.121,1.587,-8.789,-1.343
1.013,0.345,-0.113,-0.549,-5.127,0.000
0.999,0.343,-0.127,-1.648,-1.526,0.366
0.978,0.345,-0.147,-0.366,3.174,-1.099
0.944,0.345,-0.177,-0.183,4.028,-1.099
0.935,0.336,-0.180,-0.244,4.578,-2.563
0.916,0.314,-0.187,0.610,4.578,-4.578
0.906,0.305,-0.195,0.427,4.211,-5.066
0.885,0.307,-0.208,-0.793,3.723,-2.380
0.878,0.316,-0.208,-1.709,2.930,0.793
0.875,0.324,-0.207,-1.343,0.671,4.272
0.880,0.320,-0.198,-0.427,-0.488,3.967
0.888,0.311,-0.193,2.563,-1.892,1.282
0.892,0.305,-0.188,4.150,-2.075,-0.061
0.887,0.313,-0.189,4.578,-2.563,0.732
0.880,0.333,-0.189,3.235,-2.930,2.441
0.884,0.337,-0.185,2.380,-3.723,3.662
0.890,0.341,-0.179,4.150,-5.737,3.052
0.901,0.343,-0.167,5.188,-6.409,2.014
0.913,0.339,-0.156,5.676,-7.202,2.075
0.937,0.346,-0.137,5.310,-7.019,3.479
0.941,0.354,-0.133,4.272,-6.226,5.005
0.940,0.360,-0.131,3.113,-4.028,5.127
0.932,0.363,-0.140,3.418,-2.808,3.723
0.927,0.361,-0.147,2.563,-0.671,1.587
0.912,0.355,-0.166,2.014,0.122,1.038
0.903,0.352,-0.175,2.197,0.671,0.305
0.889,0.350,-0.186,2.014,0.244,0.793
0.891,0.349,-0.183,1.892,-0.732,1.526
0.898,0.349,-0.175,3.235,-2.686,2.197

1.204,0.853,-0.922,17.029,-41.931,89.600
1.224,0.968,-1.010,9.521,-62.561,125.549
1.174,1.094,-1.152,9.583,-66.895,125.977
1.128,1.099,-1.220,23.437,-60.364,80.627
1.020,1.062,-1.370,34.851,-53.650,46.021
0.983,1.021,-1.397,44.983,-49.988,14.709
0.950,0.961,-1.379,47.729,-59.753,-29.236
0.916,0.800,-1.264,37.170,-71.106,-46.875
0.877,0.713,-1.187,7.935,-101.562,-57.556
0.757,0.570,-1.010,-7.996,-119.873,-47.546
0.660,0.531,-0.911,-49.683,-161.072,-18.188
0.267,0.515,-0.551,-75.500,-179.443,-7.568
0.017,0.508,-0.287,-100.403,-196.716,-4.333
-0.229,0.474,0.010,-129.272,-220.886,-27.954
-0.613,0.338,0.703,-126.526,-219.727,-50.598
-0.748,0.248,1.021,-93.933,-199.219,-101.562
-0.900,-0.029,1.478,-80.688,-189.331,-114.929
-0.926,-0.117,1.705,-90.027,-174.744,-104.614
-0.736,0.014,2.193,-98.267,-167.969,-87.463
-0.447,0.125,2.282,-94.360,-165.039,-66.833
0.728,0.186,2.299,-74.951,-183.960,-13.123
1.462,0.230,2.391,-81.299,-187.500,35.156
2.084,0.308,2.393,-124.390,-124.634,103.027
2.196,0.535,1.711,-127.441,-73.792,87.585
1.636,0.607,1.177,-18.188,36.133,-16.235
0.338,0.644,0.495,31.860,58.533,-79.163
0.000,0.579,0.354,46.753,50.293,-114.258
-0.093,0.432,0.257,11.658,12.451,-68.176
0.103,0.159,0.219,-9.766,6.348,-19.958
0.267,0.113,0.322,-12.878,4.395,37.659
0.566,0.232,0.640,3.357,1.282,39.001
0.671,0.349,0.744,21.179,0.427,29.236
0.753,0.466,0.806,39.185,13.855,2.197
0.884,0.667,0.869,41.870,27.222,-5.859
0.907,0.717,0.843,46.326,46.936,-10.803
0.936,0.721,0.820,49.011,50.720,-9.949
0.950,0.709,0.865,48.157,56.335,-10.315
0.967,0.731,0.914,60.364,97.351,1.099
0.863,0.711,1.042,66.284,115.662,7.385
0.836,0.685,1.036,68.665,121.765,2.014
0.864,0.545,0.813,72.571,110.779,4.211
0.861,0.516,0.705,66.101,93.933,18.188
0.826,0.551,0.694,57.312,101.624,24.536
0.780,0.636,0.914,47.607,117.004,22.156
0.800,0.607,0.999,39.673,155.762,-21.118
0.737,0.344,0.872,38.147,167.541,-51.880
0.700,0.163,0.789,36.316,169.434,-87.402
0.728,-0.024,0.717,48.889,164.062,-82.458
0.744,-0.165,0.619,62.744,162.842,-63.782
0.654,-0.125,0.633,73.730,177.734,-14.221
0.439,0.038,0.625,83.984,181.213,0.061
0.384,0.119,0.530,108.459,174.499,2.136
0.284,0.133,0.310,105.591,164.429,-3.723
0.258,0.081,0.182,95.459,149.475,-7.385
0.260,0.026,0.025,71.716,117.981,15.625
0.312,0.025,-0.246,53.467,105.591,43.396
0.359,0.083,-0.331,18.982,83.679,98.511
0.525,0.303,-0.411,10.620,72.327,113.281
0.636,0.411,-0.454,7.874,58.289,119.385
0.728,0.525,-0.508,10.681,39.673,98.511
0.875,0.811,-0.710,9.766,41.931,79.590
0.907,0.934,-0.865,0.000,32.532,39.734
0.789,1.122,-1.143,-0.183,30.273,7.263
0.688,1.205,-1.296,14.099,35.461,-39.185
0.533,1.260,-1.497,71.228,44.617,-172.974
0.206,1.243,-1.906,75.378,48.340,-227.356
0.118,1.086,-1.926,-28.381,38.025,-216.797
0.370,0.371,-1.470,-88.318,9.460,-166.382
0.660,0.018,-1.142,-70.679,-67.078,-68.665
1.273,-0.246,-0.426,-17.700,-101.624,-32.288
1.522,-0.188,-0.052,27.405,-122.253,2.625
1.798,0.081,0.453,63.599,-106.445,59.204
1.796,0.240,0.498,64.270,-73.914,65.857
1.700,0.364,0.438,48.828,0.427,33.508
1.348,0.441,0.169,38.269,25.818,13.184
1.149,0.444,0.024,19.775,46.936,-5.981
0.848,0.453,-0.169,10.864,46.448,-8.545
0.755,0.433,-0.215,2.502,41.870,-11.414
0.698,0.385,-0.237,-11.047,28.625,-18.250
0.680,0.242,-0.225,-13.977,19.836,-17.395
0.714,0.183,-0.197,-9.705,0.488,-6.897
0.808,0.137,-0.136,-5.005,-6.409,-2.075
0.846,0.137,-0.114,0.061,-10.925,1.038
0.884,0.150,-0.096,9.766,-15.991,6.287
0.949,0.219,-0.064,12.207,-15.869,8.545
0.969,0.259,-0.048,11.414,-12.390,10.010
0.991,0.327,-0.047,9.888,-10.559,10.803
0.991,0.355,-0.055,5.493,-7.385,11.658
0.990,0.380,-0.065,4.089,-6.348,9.583
0.998,0.370,-0.064,3.296,-5.554,5.920
1.006,0.355,-0.065,1.282,-2.441,-2.136
1.006,0.328,-0.069,-1.160,-0.488,-4.700
0.999,0.315,-0.073,-9.521,3.296,-3.296
0.966,0.276,-0.097,-13.306,5.127,-1.465
0.946,0.255,-0.113,-12.634,5.859,-0.793
0.919,0.231,-0.134,-10.010,4.761,-1.343
0.914,0.227,-0.135,-7.812,3.113,-0.977
0.911,0.226,-0.134,-4.089,-0.366,1.892
0.911,0.237,-0.126,-2.258,-1.526,2.502
0.915,0.248,-0.122,-0.061,-3.052,2.502
0.932,0.261,-0.107,0.000,-3.784,2.441
0.939,0.260,-0.101,-0.610,-4.089,2.319
0.945,0.256,-0.095,-0.916,-3.662,1.770
0.943,0.262,-0.097,0.122,-3.540,1.465
0.942,0.269,-0.098,2.014,-4.211,1.221
0.953,0.275,-0.089,2.930,-4.517,1.099
0.957,0.280,-0.087,4.700,-4.089,-0.854
0.955,0.290,-0.083,4.700,-3.662,-1.831
0.955,0.288,-0.083,3.418,-3.296,-1.831
0.954,0.279,-0.087,-0.977,-1.770,-0.122
0.947,0.264,-0.098,-1.465,-1.343,0.366
0.943,0.266,-0.103,0.000,-1.465,0.488
0.943,0.276,-0.099,0.366,-1.709,1.404
0.949,0.279,-0.093,1.892,-1.831,2.747
0.963,0.281,-0.083,2.686,-1.404,2.380
0.966,0.281,-0.079,2.869,-0.793,2.136
0.966,0.286,-0.075,2.319,0.244,2.319
0.965,0.300,-0.073,1.526,0.366,2.319
0.964,0.300,-0.072,-0.488,1.526,1.038

1.486,1.103,-0.365,-44.250,-24.902,88.318
1.445,1.085,-0.427,-54.932,2.502,46.326
1.351,0.953,-0.583,-57.068,12.634,24.109
1.324,0.884,-0.660,-63.782,19.104,8.606
1.335,0.761,-0.793,-68.787,17.761,11.230
1.356,0.709,-0.892,-71.838,15.747,13.489
1.354,0.676,-1.034,-63.110,12.329,7.568
1.149,0.719,-1.346,-56.458,7.507,-0.244
0.946,0.792,-1.480,-44.434,-20.508,-15.442
0.336,0.886,-1.675,-37.354,-38.452,-38.086
-0.056,0.855,-1.750,-31.555,-72.205,-142.212
-0.938,0.595,-1.601,-43.884,-97.473,-192.139
-1.314,0.390,-1.158,-75.195,-140.015,-207.031
-1.704,-0.003,0.370,-144.653,-277.161,-128.784
-1.828,-0.072,1.337,-148.499,-334.717,-85.754
-1.891,-0.020,2.350,-124.390,-344.971,-64.331
-1.519,0.378,3.825,-147.217,-329.468,-36.804
-0.527,0.666,4.000,-215.271,-378.723,160.461
3.463,0.239,4.000,-166.199,-415.039,217.651
4.000,-0.622,3.804,68.848,-223.755,-17.029
2.079,-0.974,1.450,120.605,12.512,-145.325
0.005,-0.398,0.318,79.407,208.801,-149.536
-1.128,0.049,-0.365,-34.729,180.115,102.905
-0.752,0.508,-0.761,-41.626,59.631,193.665
-0.321,0.687,-0.461,14.465,-66.040,108.887
0.272,0.777,0.340,43.945,-95.215,20.996
0.607,0.638,0.755,41.016,-107.605,-31.677
1.181,0.195,1.172,21.423,-78.430,-22.949
1.215,0.046,1.158,10.132,-36.255,-17.944
1.084,0.028,1.024,25.208,18.433,-15.015
0.688,0.290,0.597,36.804,23.071,-4.639
0.569,0.459,0.457,34.058,12.695,26.306
0.603,0.703,0.433,23.926,8.240,31.799
0.729,0.780,0.502,18.677,7.751,29.724
0.833,0.784,0.611,17.944,10.193,9.094
0.984,0.670,0.760,17.090,11.841,-11.719
0.985,0.583,0.791,14.465,21.240,-33.875
0.917,0.461,0.771,13.489,29.480,-29.663
0.876,0.423,0.760,13.000,37.903,-21.301
0.819,0.392,0.756,15.503,51.147,-17.639
0.707,0.341,0.724,19.409,55.847,-22.888
0.684,0.323,0.702,29.907,60.669,-23.865
0.721,0.291,0.672,33.875,61.890,-18.127
0.778,0.258,0.686,37.659,64.453,-4.700
0.839,0.226,0.748,39.734,69.763,0.916
0.880,0.229,0.983,44.373,80.444,3.662
0.855,0.240,1.041,56.091,104.248,-7.019
0.837,0.151,0.994,57.739,110.901,-11.963
0.822,0.064,0.990,51.697,130.249,-5.615
0.726,-0.115,0.966,51.575,139.771,-0.977
0.661,-0.197,0.947,54.565,147.217,2.258
0.609,-0.231,0.926,78.674,155.762,17.456
0.608,-0.126,0.835,103.882,152.771,26.184
0.649,-0.033,0.722,159.363,140.137,14.832
0.719,0.101,0.516,174.622,132.874,1.099
0.704,0.133,0.485,174.499,127.197,-3.906
0.670,0.145,0.477,142.334,123.291,18.921
0.599,0.131,0.415,116.333,126.648,36.377
0.601,0.106,0.278,68.604,132.751,82.397
0.597,0.103,-0.051,51.819,133.423,105.774
0.580,0.134,-0.123,41.748,131.226,121.948
0.558,0.181,-0.149,45.349,118.042,120.300
0.515,0.402,-0.202,49.316,109.436,114.136
0.508,0.580,-0.245,26.917,91.370,120.728
0.584,0.890,-0.369,-1.160,81.909,125.549
0.636,0.949,-0.393,-57.678,79.956,114.868
0.650,0.923,-0.443,-65.491,83.130,86.365
0.656,0.870,-0.505,-55.786,84.412,41.504
0.659,0.822,-0.604,-8.362,82.886,-54.016
0.613,0.834,-0.823,12.024,78.674,-87.341
0.591,0.870,-0.888,22.461,58.533,-121.033
0.575,0.829,-0.943,17.334,49.866,-135.864
0.580,0.760,-0.949,12.634,45.105,-179.138
0.618,0.588,-0.963,-0.977,44.861,-180.054
0.678,0.461,-0.932,-27.527,39.673,-159.302
0.751,0.333,-0.867,-56.519,12.024,-106.934
0.883,0.181,-0.730,-46.570,-4.639,-92.712
0.926,0.183,-0.682,-27.344,-28.076,-54.626
1.056,0.274,-0.521,-22.583,-39.795,-26.306
1.140,0.337,-0.391,-6.165,-55.908,16.968
1.298,0.429,-0.125,-0.854,-54.077,27.527
1.348,0.439,-0.034,0.488,-46.753,33.081
1.366,0.443,0.006,2.502,-23.376,29.358
1.309,0.410,-0.023,2.869,-11.353,20.569
1.248,0.362,-0.055,-1.099,7.019,3.540
1.099,0.262,-0.116,-3.479,12.695,-2.136
1.023,0.213,-0.149,-8.911,18.799,-8.850
0.890,0.111,-0.203,-9.216,18.738,-11.169
0.848,0.075,-0.220,-7.690,16.541,-11.963
0.821,0.058,-0.231,-3.906,9.644,-7.690
0.806,0.078,-0.232,-0.122,5.188,-6.104
0.817,0.107,-0.226,8.667,-4.578,-5.859
0.859,0.155,-0.199,9.460,-8.362,-4.395
0.885,0.174,-0.179,9.033,-11.719,-1.953
0.928,0.226,-0.155,9.033,-11.536,-2.258
0.945,0.244,-0.152,7.935,-11.047,-1.953
0.959,0.258,-0.149,5.066,-10.315,-0.183
0.973,0.277,-0.149,3.479,-9.583,0.732
0.982,0.281,-0.147,0.244,-8.362,0.916
1.001,0.273,-0.135,0.000,-7.935,-1.587
1.006,0.256,-0.128,-1.282,-5.127,-6.897
1.000,0.205,-0.128,-3.601,-2.747,-7.507
0.991,0.182,-0.137,-6.714,-0.488,-6.226
0.977,0.167,-0.148,-13.367,2.258,2.014
0.950,0.166,-0.164,-13.611,2.136,5.005
0.940,0.174,-0.168,-7.507,0.549,2.136
0.930,0.177,-0.172,-4.456,-0.244,-0.793
0.927,0.171,-0.175,-1.465,-1.709,-4.150
0.929,0.167,-0.174,-0.732,-2.747,-4.395
0.934,0.171,-0.169,-0.610,-3.784,-3.540
0.938,0.175,-0.164,-1.282,-5.310,-0.854
0.948,0.183,-0.161,-1.038,-5.798,-0.732
0.954,0.187,-0.156,0.244,-6.287,-1.160
0.966,0.197,-0.142,1.526,-6.348,-1.526
0.968,0.206,-0.138,3.479,-6.165,-2.380
0.967,0.221,-0.135,3.967,-5.920,-3.174
0.970,0.225,-0.130,4.517,-5.737,-4.517
0.973,0.224,-0.125,4.211,-4.578,-6.348
0.970,0.222,-0.123,2.686,-4.028,-5.859

1.249,0.711,-0.654,-52.856,-74.829,86.060
1.315,0.755,-0.630,-75.500,-73.547,115.112
1.391,0.870,-0.644,-85.144,-65.430,117.126
1.396,0.923,-0.696,-102.600,-51.697,108.032
1.379,0.999,-0.843,-110.535,-48.828,103.943
1.393,1.007,-0.942,-114.868,-48.401,98.694
1.423,0.993,-1.063,-107.666,-49.255,70.984
1.399,0.969,-1.306,-98.511,-51.636,48.645
1.280,1.020,-1.404,-70.557,-76.416,9.827
0.902,1.088,-1.466,-52.063,-97.595,-12.329
0.676,1.082,-1.439,-34.668,-143.677,-75.684
0.061,0.945,-1.260,-45.593,-166.992,-104.370
-0.316,0.740,-0.966,-81.116,-190.369,-121.094
-0.723,0.426,-0.537,-192.932,-234.009,-107.056
-1.480,-0.319,0.509,-214.783,-250.610,-93.018
-1.780,-0.571,1.085,-126.831,-286.377,-88.501
-1.986,-0.545,2.320,-63.232,-320.740,-79.529
-1.712,-0.340,2.827,-30.823,-396.484,12.817
-0.310,0.161,3.544,-53.284,-406.189,85.632
0.852,0.430,3.875,-42.542,-357.422,204.346
3.096,0.606,3.707,-12.207,-278.748,191.162
2.872,0.645,2.636,-10.986,-148.682,110.840
1.523,0.618,1.259,-117.371,109.009,-57.434
-0.818,-0.136,-0.336,-159.363,137.207,-66.956
-0.865,-0.519,-0.552,-114.075,48.645,10.925
-0.074,-0.480,-0.206,-45.837,-1.526,28.625
0.262,-0.179,0.287,56.152,-61.401,25.757
0.960,0.476,1.264,68.665,-60.974,42.969
1.216,0.702,1.415,63.293,-36.316,56.335
1.214,0.807,1.370,34.912,46.387,4.761
0.713,0.633,0.884,26.245,68.298,-39.185
0.498,0.436,0.577,25.513,63.965,-64.819
0.335,0.223,0.325,28.198,53.223,-42.969
0.365,0.274,0.399,32.715,41.016,-19.287
0.487,0.397,0.538,62.073,16.418,-6.287
0.731,0.618,0.877,76.294,10.620,-14.099
0.812,0.656,0.985,83.435,27.222,-41.504
0.834,0.567,0.979,75.928,43.091,-53.833
0.798,0.506,0.951,63.965,66.040,-48.645
0.726,0.457,0.970,66.040,71.533,-42.725
0.688,0.460,1.019,73.792,75.989,-45.532
0.664,0.441,1.083,95.215,87.036,-78.064
0.693,0.280,1.171,101.868,94.788,-94.910
0.737,0.191,1.139,97.534,110.229,-80.322
0.835,0.101,1.071,85.999,117.920,-49.011
0.839,0.117,1.100,72.632,125.916,-15.503
0.821,0.171,1.150,63.965,145.020,22.888
0.729,0.242,1.094,71.228,154.297,20.447
0.703,0.188,0.990,84.290,166.687,-3.784
0.742,-0.069,0.725,79.956,169.983,-2.625
0.754,-0.164,0.636,69.641,171.753,14.343
0.744,-0.168,0.555,73.486,161.499,64.270
0.642,0.040,0.502,89.844,152.710,73.547
0.575,0.168,0.471,123.352,143.005,56.030
0.524,0.255,0.226,128.418,139.160,40.955
0.568,0.210,0.071,119.080,136.047,31.738
0.615,0.145,-0.074,65.613,132.202,52.490
0.615,0.023,-0.232,42.664,125.610,74.585
0.570,0.025,-0.256,42.053,101.746,100.342
0.450,0.160,-0.345,56.030,89.172,99.670
0.424,0.279,-0.384,70.435,75.012,93.384
0.456,0.435,-0.429,91.370,39.368,81.726
0.623,0.749,-0.444,94.055,23.682,73.547
0.698,0.875,-0.403,83.557,14.587,37.964
0.763,0.901,-0.326,75.256,21.484,6.775
0.780,0.802,-0.303,58.899,31.616,-57.190
0.901,0.619,-0.222,37.048,26.733,-61.707
1.021,0.583,-0.160,2.014,16.541,-40.222
1.140,0.568,-0.103,-50.903,6.775,4.211
1.244,0.531,-0.137,-43.762,16.602,-11.353
1.194,0.508,-0.297,8.972,59.875,-91.919
0.939,0.406,-0.736,23.682,79.224,-123.474
0.804,0.338,-0.923,16.785,88.501,-133.789
0.701,0.305,-1.094,-19.653,71.045,-100.586
0.633,0.301,-1.248,-19.043,48.584,-85.083
0.661,0.289,-1.178,14.954,-1.587,-72.449
0.877,0.168,-0.778,25.818,-26.794,-59.814
1.027,0.119,-0.499,27.222,-63.293,-11.475
1.317,0.147,0.043,24.475,-69.031,11.230
1.414,0.214,0.232,23.071,-65.613,25.757
1.467,0.283,0.344,22.278,-38.330,27.344
1.409,0.355,0.308,19.958,-18.738,18.799
1.302,0.362,0.199,6.836,13.428,1.343
1.075,0.332,-0.024,-4.456,21.057,-1.404
0.993,0.289,-0.095,-25.330,23.804,0.061
0.905,0.153,-0.138,-27.588,21.301,-0.854
0.881,0.086,-0.138,-23.560,17.456,-2.563
0.869,0.035,-0.133,-10.437,7.019,0.427
0.888,0.018,-0.094,-3.967,1.343,5.188
0.903,0.047,-0.075,9.155,-6.775,11.047
0.931,0.144,-0.038,13.428,-8.911,12.451
0.945,0.199,-0.021,12.512,-10.193,15.381
0.964,0.284,0.005,10.681,-10.010,14.893
0.972,0.313,0.010,10.071,-10.193,12.756
0.984,0.328,0.013,8.667,-9.216,5.127
1.005,0.300,0.011,6.042,-7.141,0.732
1.010,0.261,0.008,-2.991,-2.319,-3.662
1.012,0.189,0.003,-7.385,-0.427,-2.808
1.007,0.165,-0.006,-9.949,1.099,-1.343
0.999,0.147,-0.017,-8.240,3.052,-1.343
0.980,0.125,-0.045,-5.310,3.296,-2.197
0.973,0.123,-0.056,0.854,1.648,-2.441
0.958,0.153,-0.073,3.906,0.000,-1.648
0.951,0.179,-0.078,3.723,-2.991,1.709
0.946,0.215,-0.078,-0.854,-3.845,4.517
0.950,0.213,-0.069,-5.859,-4.517,7.080
0.956,0.205,-0.056,-5.981,-5.493,6.409
0.964,0.201,-0.036,-2.258,-6.042,3.967
0.973,0.201,-0.021,2.502,-6.653,1.282
0.990,0.199,0.002,3.845,-6.042,-0.122
0.994,0.199,0.003,2.014,-3.296,-1.404
0.988,0.197,-0.014,-1.038,-1.709,-0.732
0.985,0.195,-0.021,-3.723,-0.366,-0.366
0.982,0.193,-0.024,-5.615,1.282,-1.343
0.972,0.181,-0.033,-5.249,1.892,-2.319
0.964,0.169,-0.039,-3.540,1.465,-3.418
0.957,0.143,-0.041,-2.197,0.366,-2.747
0.962,0.141,-0.037,0.854,-2.075,0.061
0.969,0.171,-0.035,1.770,-2.991,1.282

1.271,0.916,-0.805,-51.025,-18.127,105.530
1.216,0.945,-0.904,-50.171,-17.578,86.914
1.124,0.961,-1.043,-50.659,-18.433,74.280
1.114,0.961,-1.108,-58.533,-32.837,62.012
1.203,1.000,-1.263,-62.988,-48.584,65.002
1.293,1.022,-1.297,-66.772,-68.970,72.693
1.361,1.034,-1.270,-67.444,-112.366,75.684
1.356,1.065,-1.137,-57.556,-124.817,64.575
1.284,1.062,-1.085,-17.639,-130.676,9.766
1.016,0.989,-0.999,-2.502,-130.432,-31.128
0.787,0.913,-0.917,-11.475,-136.047,-113.281
0.094,0.691,-0.639,-33.020,-140.991,-149.170
-0.363,0.537,-0.452,-93.201,-154.968,-199.036
-1.344,0.104,0.195,-133.484,-173.401,-199.036
-1.720,-0.145,0.665,-175.720,-203.674,-174.866
-1.920,-0.398,1.189,-212.830,-281.250,-90.942
-1.762,-0.785,2.118,-191.711,-316.345,-56.335
-1.388,-0.826,2.445,-121.216,-369.751,0.061
-0.275,-0.439,3.167,-105.286,-375.427,47.913
0.604,0.094,3.713,-66.711,-325.500,166.260
2.840,0.970,3.722,-31.189,-258.789,166.260
2.899,0.869,2.742,-19.897,-140.808,100.281
1.741,0.495,1.455,-77.087,127.319,-68.237
-0.831,-0.256,-0.479,-100.342,156.921,-77.881
-0.930,-0.368,-0.756,-83.862,35.400,32.166
0.045,-0.069,0.014,-42.358,-24.414,56.946
0.434,0.199,0.595,26.550,-68.115,35.889
0.872,0.651,1.219,22.949,-52.917,35.217
0.909,0.660,1.185,3.662,-21.973,31.738
0.805,0.527,0.991,-19.775,37.781,-9.766
0.471,0.261,0.549,-17.395,48.462,-24.292
0.392,0.267,0.467,-2.319,31.799,-12.939
0.483,0.535,0.578,12.085,18.372,-4.700
0.583,0.662,0.680,36.011,14.160,-15.991
0.711,0.690,0.848,36.743,21.851,-28.137
0.734,0.630,0.879,32.043,29.175,-37.903
0.753,0.563,0.874,20.508,46.936,-37.720
0.754,0.461,0.813,15.625,52.612,-29.358
0.708,0.450,0.822,22.034,62.378,-19.531
0.621,0.488,0.892,39.307,67.322,-27.649
0.592,0.482,0.902,60.486,73.120,-43.274
0.573,0.461,0.864,85.388,87.036,-67.749
0.681,0.346,0.721,83.801,89.111,-62.500
0.784,0.256,0.719,72.510,86.548,-27.161
0.850,0.197,0.899,74.707,88.989,-13.428
0.795,0.287,1.068,85.999,94.788,-8.301
0.743,0.416,1.215,126.709,108.704,-34.241
0.808,0.467,1.067,142.761,118.347,-65.857
0.872,0.292,0.867,117.126,133.667,-97.717
0.911,-0.235,0.783,82.825,137.756,-71.716
0.878,-0.413,0.879,62.378,140.259,6.653
0.762,-0.303,1.107,91.858,138.306,30.640
0.719,-0.066,1.148,133.118,135.437,42.358
0.723,0.154,1.096,186.645,136.902,24.292
0.840,0.177,0.817,186.523,140.991,0.122
0.871,-0.017,0.629,139.465,156.738,-26.611
0.706,-0.468,0.399,110.840,160.522,-11.414
0.555,-0.504,0.336,92.896,156.189,26.489
0.422,-0.353,0.230,84.717,123.474,127.808
0.371,0.147,0.016,87.341,103.394,154.602
0.446,0.340,-0.094,103.271,86.426,121.521
0.506,0.609,-0.336,102.051,89.294,86.975
0.464,0.662,-0.451,85.999,91.736,61.096
0.427,0.653,-0.537,35.583,85.083,39.307
0.464,0.540,-0.650,19.470,78.491,30.396
0.514,0.523,-0.672,2.380,57.861,18.433
0.713,0.632,-0.584,-6.836,42.542,23.071
0.835,0.690,-0.483,-19.165,26.245,11.414
1.017,0.614,-0.383,-20.569,32.715,-14.465
1.042,0.498,-0.450,-21.729,46.326,-43.884
1.036,0.391,-0.556,-29.358,64.026,-75.073
0.989,0.390,-0.761,-28.198,62.500,-69.092
0.978,0.526,-0.876,-2.197,41.016,-60.059
0.939,0.843,-1.102,13.550,29.968,-67.017
0.886,0.903,-1.171,11.414,18.738,-81.055
0.887,0.653,-1.072,-3.296,11.536,-75.134
0.948,0.465,-0.918,-13.611,-0.854,-58.167
1.028,0.337,-0.710,-4.822,-40.894,-12.390
1.286,0.253,-0.185,4.395,-57.190,7.935
1.423,0.208,0.066,8.972,-55.969,22.949
1.533,0.077,0.340,9.155,-39.063,16.541
1.479,0.038,0.335,8.789,4.089,-0.854
1.364,0.027,0.258,8.789,21.362,-6.653
1.050,0.075,0.001,10.132,32.349,-10.681
0.904,0.115,-0.129,10.437,34.912,-11.475
0.726,0.147,-0.297,7.812,28.259,-7.629
0.698,0.148,-0.321,6.104,5.127,3.479
0.754,0.159,-0.265,9.216,-7.202,7.202
0.817,0.166,-0.207,13.428,-16.418,8.301
0.884,0.171,-0.145,18.005,-23.743,6.714
0.997,0.184,-0.035,16.541,-23.132,6.042
1.034,0.188,-0.000,5.310,-17.578,10.071
1.062,0.203,0.024,0.549,-14.465,13.000
1.068,0.218,0.022,-0.122,-11.597,13.123
1.065,0.236,-0.006,2.625,-5.127,5.615
1.049,0.223,-0.025,1.221,-1.892,2.136
1.027,0.205,-0.042,-3.906,2.625,-1.160
0.987,0.176,-0.072,-5.005,3.601,-1.953
0.970,0.168,-0.083,-4.272,3.235,-2.319
0.951,0.147,-0.094,-3.723,2.197,-2.197
0.950,0.133,-0.094,-2.930,1.038,-2.380
0.953,0.120,-0.090,0.427,-1.038,-4.333
0.963,0.104,-0.088,1.160,-1.587,-4.944
0.960,0.102,-0.087,-2.563,-2.014,-1.770
0.962,0.114,-0.077,-3.418,-2.991,0.061
0.968,0.125,-0.070,0.488,-5.066,0.000
0.992,0.143,-0.054,2.258,-5.493,-0.488
1.006,0.150,-0.044,2.869,-5.249,-0.854
1.017,0.157,-0.036,2.075,-2.991,-1.038
1.019,0.176,-0.036,1.160,-1.160,-1.099
1.008,0.183,-0.050,-0.610,1.892,-2.197
0.983,0.175,-0.075,-1.709,2.319,-2.441
0.975,0.163,-0.083,-3.418,2.014,-1.587
0.966,0.147,-0.088,-3.479,1.526,-1.221
0.967,0.141,-0.085,-3.174,0.854,-1.160
0.968,0.134,-0.080,-1.770,-0.488,-1.038
0.975,0.125,-0.068,-1.038,-0.854,-0.671
0.976,0.124,-0.064,-0.366,-0.671,0.244
0.970,0.132,-0.064,-0.305,-0.427,0.793

1.310,0.712,-0.566,-58.411,-40.833,82.520
1.316,0.681,-0.637,-76.721,-31.616,85.815
1.306,0.641,-0.747,-84.351,-29.907,91.797
1.294,0.635,-0.778,-89.233,-35.583,103.027
1.264,0.589,-0.775,-86.426,-39.917,100.952
1.267,0.524,-0.766,-79.468,-42.908,91.248
1.250,0.438,-0.758,-59.143,-43.091,60.486
1.091,0.354,-0.755,-50.964,-45.105,50.842
0.965,0.393,-0.750,-43.335,-74.158,61.462
0.814,0.531,-0.723,-41.748,-98.633,71.411
0.799,0.590,-0.699,-38.391,-144.775,69.946
0.776,0.675,-0.628,-36.865,-162.048,58.655
0.732,0.715,-0.576,-36.804,-176.392,43.945
0.645,0.757,-0.508,-42.908,-200.623,10.925
0.322,0.869,-0.304,-46.814,-207.642,-6.958
0.139,0.896,-0.192,-49.622,-201.172,-61.096
-0.287,0.839,0.064,-51.025,-184.570,-100.952
-0.602,0.762,0.242,-82.947,-142.944,-162.476
-1.505,0.651,0.861,-109.009,-130.005,-168.335
-1.970,0.627,1.231,-123.718,-135.559,-168.152
-2.223,0.512,1.653,-122.253,-247.314,-183.350
-1.316,-0.320,2.947,-122.314,-318.848,-167.541
0.014,-0.849,3.693,-95.581,-359.741,-2.625
3.507,-1.286,4.000,-62.988,-303.101,88.806
3.615,-0.890,3.141,-22.400,23.621,68.726
0.150,0.449,0.396,-14.648,177.673,-16.663
-0.922,0.721,-0.458,-22.034,211.365,-58.472
-0.417,0.445,-0.519,-82.642,57.068,44.983
0.033,0.336,-0.163,-66.162,-6.653,57.861
0.282,0.372,0.209,27.771,-63.293,-13.489
0.715,0.461,0.874,33.813,-70.251,-12.634
0.930,0.380,1.091,-6.104,-36.804,12.390
0.968,0.285,1.126,-9.338,-8.850,6.897
0.833,0.366,0.976,-0.305,13.000,-0.793
0.704,0.466,0.807,11.047,30.457,-1.221
0.577,0.573,0.625,10.864,32.104,1.892
0.591,0.588,0.630,13.611,31.067,0.549
0.700,0.585,0.766,20.081,32.288,-3.052
0.733,0.593,0.806,43.579,40.649,-29.663
0.724,0.627,0.764,56.885,44.250,-46.021
0.722,0.604,0.757,66.040,46.387,-57.312
0.732,0.544,0.781,81.726,54.504,-71.411
0.696,0.386,0.872,95.276,62.195,-83.679
0.665,0.321,0.886,131.653,69.031,-108.704
0.761,0.169,0.826,141.174,68.237,-106.995
0.881,0.080,0.823,141.663,67.932,-93.567
0.981,0.013,0.903,135.376,79.163,-59.387
0.987,-0.020,1.134,134.399,91.919,-49.683
0.904,-0.035,1.152,118.958,119.019,-32.532
0.773,-0.124,0.986,102.539,126.526,-14.648
0.765,-0.167,0.885,88.928,130.127,5.859
0.776,-0.177,0.760,94.482,129.761,28.931
0.785,-0.099,0.494,104.248,126.404,32.654
0.780,-0.043,0.411,103.943,120.239,43.762
0.777,0.062,0.327,95.581,116.699,51.575
0.778,0.116,0.335,70.496,110.168,71.167
0.777,0.150,0.352,61.646,107.971,76.111
0.744,0.146,0.375,61.646,107.605,71.045
0.697,0.133,0.326,87.463,105.103,41.504
0.669,0.170,0.196,102.051,98.572,31.067
0.713,0.227,0.182,109.192,90.698,30.579
0.741,0.284,0.165,96.863,85.876,36.499
0.695,0.292,0.088,81.604,88.135,34.363
0.654,0.233,0.073,49.500,95.459,28.320
0.599,0.109,0.109,44.861,96.985,25.024
0.611,0.089,0.067,52.368,94.971,17.700
0.654,0.101,-0.059,80.200,80.322,-2.502
0.765,0.154,-0.242,80.322,71.960,-2.686
0.800,0.197,-0.225,45.471,62.927,21.118
0.884,0.296,-0.031,30.151,61.340,29.053
0.962,0.327,0.087,44.922,59.448,1.831
1.190,0.380,0.124,63.599,58.960,-22.705
1.280,0.419,0.076,69.336,61.401,-36.560
1.301,0.465,0.003,23.254,81.360,-23.743
1.185,0.533,-0.261,-13.428,97.839,-13.672
1.062,0.531,-0.465,-53.345,128.052,-24.963
0.732,0.542,-1.066,-41.870,132.385,-49.377
0.543,0.634,-1.454,-16.418,126.709,-74.219
0.350,0.808,-1.831,22.034,82.275,-88.684
0.105,1.103,-2.138,16.113,42.542,-77.271
0.177,1.023,-1.924,-24.780,-48.340,-51.819
0.654,0.371,-0.964,-37.170,-80.139,-49.988
0.929,-0.048,-0.429,-26.733,-108.093,-46.875
1.399,-0.654,0.391,-10.742,-107.971,-33.020
1.548,-0.735,0.597,18.433,-82.581,10.986
1.584,-0.484,0.575,26.794,-61.646,30.640
1.501,-0.255,0.444,30.823,-40.894,42.786
1.382,-0.008,0.282,35.461,-8.545,43.823
1.129,0.402,-0.029,32.654,3.113,35.400
1.026,0.489,-0.138,9.338,17.822,11.597
0.877,0.411,-0.247,-5.127,21.301,1.160
0.836,0.310,-0.255,-15.869,21.912,-6.409
0.821,0.202,-0.241,-19.287,13.367,-14.648
0.848,0.006,-0.169,-13.977,6.714,-16.541
0.874,-0.072,-0.133,-0.549,-4.822,-13.794
0.918,-0.135,-0.085,5.005,-10.010,-8.667
0.944,-0.113,-0.061,7.874,-17.456,10.132
0.994,0.014,-0.028,7.507,-18.250,18.311
1.006,0.093,-0.031,9.644,-17.517,20.752
1.009,0.162,-0.044,16.174,-14.709,12.878
1.019,0.236,-0.052,14.771,-13.000,9.033
1.024,0.245,-0.049,5.554,-8.850,4.578
1.027,0.221,-0.047,-0.427,-6.714,3.113
1.027,0.192,-0.049,-12.085,-2.563,1.343
1.018,0.124,-0.056,-13.794,-1.221,-0.366
1.016,0.095,-0.059,-12.878,-0.671,-2.258
1.019,0.070,-0.054,-7.874,-0.732,-5.249
1.026,0.027,-0.040,-4.822,-0.366,-6.531
1.023,0.016,-0.041,-1.343,0.916,-5.310
1.005,0.014,-0.052,-1.648,1.465,-2.991
0.993,0.025,-0.063,0.122,1.465,0.305
0.974,0.065,-0.084,3.235,0.244,0.366
0.972,0.090,-0.089,6.165,-1.465,0.427
0.976,0.109,-0.086,6.409,-3.418,1.404
0.990,0.113,-0.079,3.784,-2.991,1.709
0.994,0.102,-0.075,-1.038,-1.526,2.197
0.996,0.089,-0.067,-2.441,-1.160,3.052
0.994,0.090,-0.064,-3.174,-0.793,4.028
0.988,0.087,-0.060,-2.380,-0.610,3.235

1.079,1.105,-1.134,-60.303,-56.946,106.262
0.977,1.324,-1.389,-84.717,-86.243,109.131
0.738,1.576,-1.737,-90.515,-104.248,93.872
0.701,1.533,-1.702,-98.694,-154.175,44.128
0.782,1.206,-1.294,-106.445,-178.040,24.902
0.869,1.005,-1.041,-116.516,-198.547,13.733
0.986,0.807,-0.783,-132.996,-231.262,8.240
1.277,0.514,-0.277,-132.812,-239.929,9.644
1.378,0.520,-0.062,-98.816,-236.206,4.944
1.469,0.856,0.255,-77.759,-216.919,-11.047
1.355,1.007,0.277,-55.603,-142.090,-90.881
0.580,0.996,0.197,-60.913,-115.723,-157.166
0.061,0.758,0.313,-85.205,-111.694,-216.858
-0.527,0.429,0.572,-214.722,-133.667,-192.444
-1.478,-0.234,1.541,-274.475,-154.785,-130.981
-1.674,-0.527,2.120,-219.482,-222.046,-99.792
-1.341,-0.872,3.093,-131.958,-263.367,-131.409
-0.443,-0.952,3.590,-37.415,-319.580,-66.528
2.520,-1.115,4.000,-55.298,-278.687,54.077
2.872,-0.982,3.250,-83.618,-164.185,144.653
1.522,-0.487,1.503,-102.173,125.549,79.407
-1.787,0.568,-1.471,-114.685,149.414,47.791
-1.709,0.667,-1.370,-102.722,-31.677,115.723
0.160,0.474,0.488,-37.292,-101.807,80.261
0.790,0.303,1.059,45.227,-89.478,-46.204
0.899,-0.087,1.159,18.311,-47.852,-42.786
0.719,-0.135,1.013,-15.320,-13.367,-10.681
0.587,-0.011,0.898,-17.151,7.080,35.767
0.555,0.473,0.755,1.953,3.174,35.767
0.535,0.595,0.667,13.306,2.075,6.409
0.469,0.506,0.627,3.906,4.089,0.122
0.533,0.449,0.725,-7.385,-3.479,12.817
0.785,0.496,1.007,0.244,-6.348,15.076
0.845,0.567,1.092,13.062,-3.540,8.423
0.872,0.611,1.121,30.762,11.841,-12.146
0.854,0.560,1.092,30.945,24.231,-19.897
0.815,0.504,1.053,29.724,46.143,-29.358
0.754,0.412,0.998,32.410,51.819,-29.419
0.737,0.380,0.972,38.391,55.115,-28.503
0.713,0.350,0.948,53.772,60.242,-29.602
0.656,0.282,0.964,60.242,62.927,-29.053
0.652,0.241,1.000,78.796,68.420,-28.992
0.648,0.135,1.039,92.163,73.181,-34.424
0.639,0.107,1.027,106.628,78.979,-41.138
0.641,0.105,0.998,131.531,88.440,-40.344
0.689,0.073,0.927,138.123,91.431,-33.630
0.690,0.046,0.959,133.911,102.173,-14.526
0.618,0.026,1.088,128.113,110.413,-6.897
0.557,0.034,1.115,128.662,118.652,-4.517
0.512,0.065,1.078,152.466,126.709,-14.832
0.584,0.125,0.735,162.537,125.793,-21.729
0.654,0.059,0.535,143.188,123.047,-18.616
0.639,-0.179,0.396,118.835,122.375,-2.441
0.593,-0.219,0.409,84.839,113.953,44.250
0.600,-0.046,0.443,82.764,105.774,63.293
0.672,0.091,0.410,90.393,96.558,71.472
0.762,0.206,0.320,116.150,83.008,44.922
0.855,0.253,0.156,118.469,82.275,24.719
0.833,0.191,0.122,89.722,85.571,15.015
0.779,0.042,0.096,72.266,85.510,23.987
0.779,0.029,0.078,62.378,83.435,35.034
0.821,0.066,0.059,61.951,72.449,49.011
0.908,0.210,0.007,60.486,69.031,50.781
0.908,0.244,-0.011,46.997,70.862,42.480
0.878,0.236,-0.005,43.274,73.059,31.982
0.854,0.221,0.010,42.603,74.524,20.630
0.846,0.188,0.026,32.776,71.655,14.221
0.904,0.107,0.064,19.470,70.557,23.865
0.934,0.075,0.081,-10.803,75.867,48.279
0.920,0.054,0.045,-16.968,78.857,51.636
0.913,0.081,0.027,-13.977,78.918,48.706
0.937,0.129,0.034,0.732,73.853,35.034
1.036,0.227,-0.016,4.028,74.890,26.245
1.066,0.227,-0.060,-5.188,77.820,18.005
1.050,0.172,-0.074,-15.686,78.308,22.583
1.016,0.156,-0.122,-27.405,78.613,30.701
0.967,0.160,-0.209,-37.537,75.989,41.443
0.883,0.210,-0.385,-31.921,72.510,37.109
0.855,0.258,-0.469,-14.099,60.608,18.677
0.789,0.414,-0.654,-4.822,54.565,12.390
0.767,0.500,-0.726,11.963,41.321,-5.554
0.744,0.607,-0.806,20.081,35.217,-19.165
0.743,0.625,-0.816,27.527,29.663,-34.180
0.759,0.614,-0.775,13.550,21.545,-37.170
0.812,0.490,-0.551,-8.423,18.982,-22.522
0.853,0.410,-0.452,-27.832,3.174,-11.169
1.025,0.246,-0.281,-18.555,-11.230,-18.250
1.104,0.225,-0.192,-5.371,-22.827,-21.545
1.234,0.251,-0.049,5.127,-31.311,-2.991
1.263,0.244,-0.018,1.770,-29.419,6.226
1.266,0.214,-0.010,-3.967,-19.226,9.766
1.222,0.146,-0.020,-4.395,-12.756,8.423
1.181,0.127,-0.038,-3.174,-0.488,4.089
1.094,0.097,-0.081,-2.502,3.723,2.808
1.055,0.093,-0.100,-1.465,5.859,2.991
1.023,0.093,-0.112,5.127,3.845,1.343
0.981,0.101,-0.126,10.559,1.892,-1.648
0.963,0.110,-0.126,16.907,-0.366,-6.287
0.923,0.144,-0.129,14.954,-0.244,-5.371
0.910,0.159,-0.137,2.563,0.427,2.930
0.905,0.178,-0.134,-0.427,-1.282,5.615
0.914,0.186,-0.120,0.610,-4.211,5.188
0.933,0.185,-0.093,5.798,-9.033,0.183
0.976,0.163,-0.052,8.667,-9.644,-2.869
0.986,0.156,-0.049,9.827,-7.812,-7.385
0.997,0.145,-0.053,6.653,-5.981,-6.653
0.994,0.144,-0.059,-0.916,-2.869,-2.563
0.991,0.154,-0.068,-2.563,-2.686,-1.404
0.989,0.158,-0.072,-2.319,-2.991,-1.770
0.985,0.157,-0.075,-1.343,-3.235,-4.395
0.986,0.133,-0.074,-2.075,-3.174,-4.700
0.985,0.118,-0.076,-2.686,-2.441,-4.333
0.973,0.105,-0.092,-1.892,-2.136,-3.845
0.970,0.110,-0.097,2.441,-3.235,-3.296
0.968,0.127,-0.096,3.845,-3.784,-3.418
0.968,0.134,-0.093,2.686,-3.723,-2.136
0.968,0.138,-0.089,-2.686,-3.662,2.258
0.971,0.142,-0.089,-3.052,-3.845,2.319
0.977,0.145,-0.090,-1.648,-4.395,1.038

1.253,0.689,-0.678,-26.184,-66.772,92.773
1.301,0.730,-0.721,-21.912,-79.407,99.915
1.375,0.833,-0.862,-18.372,-77.209,95.825
1.380,0.900,-0.935,-25.269,-67.200,79.285
1.405,1.002,-1.021,-38.513,-69.458,75.073
1.453,0.995,-1.038,-55.786,-76.233,73.486
1.492,0.963,-1.043,-92.163,-87.769,59.814
1.397,0.865,-1.026,-102.539,-93.262,42.053
1.273,0.830,-1.020,-103.149,-110.840,0.183
0.998,0.790,-0.981,-104.980,-128.357,-9.766
0.851,0.822,-0.941,-154.968,-168.213,-3.906
0.511,0.857,-0.781,-199.890,-183.838,-1.282
0.286,0.774,-0.657,-236.999,-193.665,-13.916
-0.377,0.302,-0.402,-227.478,-193.542,-83.008
-0.819,-0.118,-0.323,-200.195,-195.984,-118.164
-1.316,-0.555,-0.182,-195.190,-223.694,-92.590
-2.597,-0.605,0.948,-210.876,-241.638,-43.945
-2.865,-0.202,1.835,-236.816,-291.565,49.561
-1.713,1.277,3.737,-287.231,-306.396,117.798
0.228,2.406,4.000,-455.139,-287.292,293.518
4.000,3.115,3.737,-471.741,-259.460,236.450
3.474,1.681,2.555,-316.467,-167.358,-12.024
0.915,0.009,0.832,74.280,123.657,-317.383
-1.891,-0.887,-1.222,93.262,196.411,-162.964
-1.043,-0.334,-0.855,-52.490,75.745,77.942
0.529,0.656,0.315,-64.636,-31.311,83.618
0.713,0.900,0.627,-0.244,-111.938,26.733
0.890,0.788,0.915,18.127,-64.758,10.254
0.967,0.580,1.015,32.043,4.822,0.488
0.888,0.442,0.951,36.255,65.552,-9.766
0.443,0.466,0.460,27.954,53.650,-11.475
0.316,0.580,0.266,30.151,11.963,-19.775
0.342,0.856,0.152,45.532,-2.991,-30.823
0.391,0.973,0.165,63.843,-9.583,-45.532
0.398,1.004,0.259,79.834,-3.723,-74.524
0.642,0.852,0.401,75.378,-5.859,-89.172
0.683,0.719,0.473,83.862,2.075,-74.341
0.659,0.506,0.616,70.068,-5.432,-66.406
0.668,0.430,0.661,67.261,7.996,-51.392
0.735,0.433,0.753,66.040,20.691,-36.133
0.775,0.478,0.813,71.411,32.288,-15.137
0.805,0.528,0.867,107.910,45.227,7.935
0.862,0.602,0.836,128.723,48.523,5.371
0.895,0.578,0.778,146.790,54.077,-1.404
0.982,0.419,0.683,138.367,56.274,0.366
0.968,0.326,0.705,121.155,60.913,5.798
0.925,0.281,0.770,85.205,79.529,18.494
0.878,0.391,0.887,81.116,89.661,22.644
0.887,0.463,0.871,99.548,97.107,17.273
0.920,0.453,0.702,108.459,96.680,8.423
0.900,0.347,0.602,112.305,94.849,-0.549
0.844,0.228,0.547,109.192,94.360,-13.611
0.707,0.141,0.572,110.291,97.046,-16.052
0.674,0.166,0.557,120.544,96.313,-9.033
0.755,0.231,0.499,120.422,94.238,-1.465
0.821,0.243,0.519,115.417,95.276,5.249
0.857,0.208,0.526,112.427,101.868,-1.221
0.777,0.034,0.388,122.742,100.159,-14.465
0.714,-0.009,0.293,142.456,84.412,-21.301
0.770,-0.033,0.202,142.212,75.073,-8.057
0.797,-0.007,0.194,116.882,71.777,26.001
0.753,0.127,0.214,101.074,78.125,39.795
0.724,0.161,0.223,90.698,83.252,46.021
0.702,0.174,0.177,94.055,81.787,39.490
0.763,0.266,0.023,102.539,75.806,36.743
0.804,0.323,-0.042,96.497,59.631,37.415
0.838,0.325,-0.183,79.224,58.533,43.518
0.832,0.318,-0.193,53.467,63.721,55.054
0.822,0.310,-0.170,21.118,70.007,70.190
0.791,0.403,-0.210,36.621,63.965,60.120
0.801,0.555,-0.259,72.510,39.246,38.147
0.922,0.849,-0.320,66.406,31.677,37.842
0.987,0.910,-0.323,44.556,31.738,39.978
1.010,0.925,-0.284,-35.217,47.180,33.752
0.957,0.736,-0.186,-72.937,57.983,21.179
0.927,0.524,-0.162,-65.186,66.711,-41.443
0.861,0.188,-0.302,-23.376,61.584,-74.219
0.847,0.177,-0.397,29.419,36.926,-55.298
0.964,0.334,-0.382,19.470,23.376,-19.836
1.026,0.448,-0.307,2.258,16.174,6.409
1.071,0.551,-0.268,-11.597,23.193,9.705
1.114,0.553,-0.296,-9.705,30.151,-3.479
1.094,0.503,-0.327,11.719,35.706,-34.912
1.010,0.434,-0.344,21.362,32.654,-43.335
0.997,0.396,-0.336,22.888,28.137,-44.556
0.978,0.290,-0.267,7.935,23.010,-38.269
0.962,0.250,-0.260,1.282,24.231,-35.339
0.945,0.234,-0.272,-5.249,24.902,-27.649
0.923,0.230,-0.278,-5.066,22.278,-23.376
0.911,0.236,-0.273,5.615,12.634,-20.325
0.911,0.250,-0.245,13.184,5.493,-20.020
0.925,0.250,-0.214,19.348,-1.404,-19.836
0.935,0.251,-0.187,20.813,-8.179,-17.944
0.950,0.247,-0.135,13.245,-7.935,-14.160
0.954,0.240,-0.115,-3.052,-5.676,-7.019
0.969,0.230,-0.070,-4.028,-6.104,-7.019
0.982,0.228,-0.052,4.578,-8.545,-11.719
1.010,0.209,-0.024,7.263,-9.216,-12.329
1.035,0.197,-0.006,5.798,-6.836,-9.033
1.043,0.196,0.004,1.404,-3.296,-7.751
1.022,0.192,-0.012,-3.784,1.282,-6.409
0.993,0.185,-0.031,-11.047,6.409,-2.869
0.950,0.175,-0.075,-11.902,6.348,-0.305
0.941,0.175,-0.084,-7.812,2.563,2.808
0.922,0.204,-0.099,-2.319,-0.305,1.831
0.917,0.217,-0.103,2.441,-3.479,0.549
0.925,0.226,-0.095,6.592,-9.583,1.099
0.967,0.254,-0.061,7.141,-11.353,0.610
0.993,0.258,-0.037,0.854,-10.620,-1.343
1.016,0.224,0.008,-3.479,-8.179,-2.014
1.012,0.199,0.016,-3.418,-4.395,-4.944
1.001,0.162,0.012,-0.549,-3.906,-5.798
1.001,0.157,0.006,2.136,-3.906,-5.737
1.001,0.160,-0.004,4.883,-3.540,-4.822
0.986,0.186,-0.028,4.089,-2.747,-3.845
0.976,0.195,-0.033,-1.404,-0.610,-0.244
0.958,0.201,-0.052,-2.502,-0.061,0.671
0.951,0.201,-0.064,-1.953,-0.610,0.061
0.944,0.192,-0.068,-1.221,-1.526,-0.732

1.161,0.878,-0.714,-10.254,-30.029,102.783
1.100,0.944,-0.858,-20.081,-31.250,93.323
1.002,0.988,-1.031,-30.029,-36.499,82.581
0.965,0.999,-1.073,-48.157,-52.002,77.087
1.041,1.008,-1.229,-50.903,-62.195,83.862
1.194,0.983,-1.317,-50.781,-75.378,90.454
1.383,0.904,-1.408,-34.363,-96.130,72.083
1.503,0.861,-1.600,-17.273,-105.103,53.711
1.412,1.021,-1.610,18.127,-158.081,54.260
1.181,1.439,-1.295,41.382,-197.510,49.011
1.029,1.545,-1.058,113.525,-231.750,-59.265
0.216,1.828,-0.721,130.005,-219.116,-140.930
-0.564,1.945,-0.500,79.407,-204.895,-209.900
-1.500,1.723,-0.059,-244.202,-213.806,-244.995
-3.469,-0.062,1.510,-372.131,-245.728,-224.670
-4.000,-1.011,2.434,-296.448,-395.142,-201.904
-3.134,-1.735,3.999,-198.791,-487.732,-169.617
-0.787,-1.775,4.000,-138.855,-549.133,56.091
4.000,-1.768,3.799,-104.797,-383.179,158.630
3.051,-1.388,2.631,-30.029,-39.734,110.168
-0.167,-0.536,0.448,38.269,371.094,-84.900
-2.570,1.108,-2.336,-34.363,221.558,47.180
-1.417,1.377,-1.652,-27.893,-110.474,115.356
0.180,1.111,0.411,45.837,-141.296,-10.620
0.562,0.591,1.094,-13.489,-124.573,-53.284
1.232,-0.452,1.835,-59.509,-94.727,-9.583
1.231,-0.360,1.826,-53.772,-47.485,18.555
0.708,0.507,1.115,6.897,31.982,29.419
0.391,0.723,0.713,14.526,47.607,18.494
0.190,0.747,0.430,8.728,32.104,-1.587
0.218,0.656,0.394,9.338,12.146,-4.089
0.346,0.660,0.584,25.879,-13.733,-19.714
0.601,0.644,0.995,29.114,-17.700,-24.414
0.712,0.588,1.106,26.794,-16.357,-27.283
0.770,0.523,1.142,26.367,3.418,-36.072
0.738,0.433,1.069,27.039,17.273,-39.246
0.689,0.405,1.010,26.978,34.363,-36.072
0.595,0.352,0.944,29.968,37.720,-34.546
0.559,0.330,0.897,35.706,39.490,-34.546
0.536,0.318,0.836,44.678,40.405,-31.616
0.529,0.283,0.772,43.518,39.307,-25.574
0.516,0.238,0.780,41.077,40.588,-19.714
0.448,0.157,0.823,48.279,42.969,-25.146
0.419,0.155,0.805,58.899,45.654,-32.776
0.434,0.171,0.747,64.148,44.739,-28.992
0.544,0.168,0.678,54.260,41.992,-17.273
0.608,0.139,0.699,39.551,40.161,-2.686
0.713,0.143,0.791,44.922,42.236,-4.211
0.738,0.165,0.806,66.589,52.979,-23.315
0.747,0.082,0.735,66.833,59.143,-30.640
0.773,-0.008,0.721,55.359,62.805,-24.963
0.813,-0.065,0.768,26.489,63.660,20.447
0.919,-0.006,0.921,27.283,64.087,40.894
0.944,0.095,1.005,58.655,70.129,45.471
0.919,0.291,1.080,76.477,78.186,32.227
0.894,0.288,0.989,89.539,89.416,11.536
0.874,0.192,0.805,82.825,110.046,-22.644
0.822,-0.082,0.513,61.340,110.779,-11.597
0.806,-0.120,0.508,37.109,94.421,46.326
0.800,0.072,0.583,46.143,85.022,64.697
0.785,0.214,0.582,60.120,78.735,69.336
0.769,0.343,0.562,75.684,74.585,55.115
0.804,0.451,0.417,73.853,78.003,40.344
0.840,0.371,0.298,56.824,89.355,7.812
0.813,0.187,0.154,43.335,91.125,8.545
0.786,0.153,0.156,27.832,87.891,24.719
0.775,0.158,0.193,15.869,72.937,57.068
0.771,0.243,0.235,24.231,66.101,56.519
0.760,0.281,0.226,43.884,57.739,34.851
0.772,0.296,0.154,43.701,56.702,27.283
0.788,0.251,0.134,34.607,56.213,25.146
0.793,0.188,0.151,9.155,53.040,33.081
0.783,0.113,0.204,3.784,49.988,39.124
0.792,0.117,0.208,17.944,41.382,42.969
0.854,0.172,0.238,35.095,37.231,36.438
0.886,0.233,0.208,51.941,34.790,28.992
0.915,0.287,0.165,49.316,37.476,27.100
0.916,0.303,0.124,29.785,41.443,32.837
0.899,0.283,0.146,-3.052,45.593,45.898
0.897,0.287,0.195,-2.197,44.495,46.387
0.913,0.338,0.166,22.217,36.560,38.086
0.932,0.420,0.132,32.104,29.785,33.386
0.977,0.593,0.159,35.706,26.428,26.978
0.995,0.599,0.178,16.541,37.048,7.751
0.992,0.440,0.210,2.686,45.654,-4.089
0.954,0.349,0.176,-5.127,59.814,-20.020
0.887,0.257,-0.003,-3.967,61.096,-17.822
0.879,0.245,-0.068,-5.920,56.335,-9.705
0.872,0.248,-0.068,-7.019,35.095,5.676
0.877,0.283,0.031,1.953,24.414,5.859
0.889,0.315,0.079,20.081,13.245,-0.488
0.918,0.382,0.100,22.705,12.634,-3.479
0.937,0.383,0.100,18.372,14.038,-6.958
0.959,0.346,0.108,-4.456,20.691,-10.498
0.991,0.198,0.185,-13.428,23.621,-10.132
0.982,0.150,0.206,-5.493,31.006,-9.644
0.959,0.119,0.179,5.981,33.142,-9.827
0.948,0.120,0.148,16.846,32.471,-10.376
0.942,0.149,0.089,29.236,25.818,-4.700
0.962,0.252,0.025,26.062,20.325,1.282
0.977,0.301,0.054,4.822,12.573,16.174
1.041,0.367,0.118,-5.859,14.099,22.583
1.069,0.366,0.112,-7.568,29.785,16.541
1.021,0.369,-0.032,2.441,38.940,6.104
0.995,0.385,-0.131,13.184,42.786,-4.395
0.966,0.426,-0.210,24.231,38.208,-10.864
0.930,0.560,-0.317,26.001,34.546,-7.935
0.931,0.602,-0.352,20.935,27.283,-6.714
0.937,0.556,-0.347,13.977,22.766,-9.033
0.933,0.483,-0.308,7.080,17.212,-10.620
0.924,0.406,-0.261,0.244,4.578,-6.470
0.944,0.280,-0.140,0.061,-2.747,-1.648
0.965,0.236,-0.071,4.150,-13.428,7.080
1.000,0.198,0.064,7.019,-16.479,11.108
1.021,0.207,0.118,12.024,-18.188,17.944
1.033,0.268,0.175,13.489,-16.235,17.334
1.022,0.302,0.175,13.977,-12.817,14.282
1.009,0.326,0.152,11.719,-4.883,4.028
0.977,0.332,0.094,8.179,-1.648,-1.953

1.360,0.925,-0.416,-46.143,-40.710,76.294
1.417,0.958,-0.482,-58.167,-21.973,83.191
1.383,1.032,-0.694,-66.040,-9.277,85.022
1.307,1.062,-0.811,-82.092,7.568,75.623
1.149,1.023,-0.956,-90.271,2.136,66.711
1.106,0.989,-0.953,-97.900,-9.644,57.556
1.061,0.927,-0.963,-96.313,-34.363,28.931
0.896,0.776,-1.012,-88.806,-52.124,14.465
0.769,0.734,-0.991,-75.745,-110.474,-1.099
0.557,0.760,-0.801,-68.604,-146.362,-2.991
0.460,0.827,-0.653,-54.749,-197.571,-23.926
0.228,0.904,-0.339,-54.321,-206.665,-56.091
0.072,0.823,-0.218,-64.697,-208.557,-97.717
-0.138,0.654,-0.108,-109.741,-224.426,-146.973
-0.673,0.248,0.233,-126.831,-241.882,-145.874
-1.021,0.170,0.518,-132.263,-267.761,-138.184
-1.806,0.185,1.416,-147.034,-276.917,-142.090
-2.051,0.056,2.036,-201.111,-322.205,-145.203
-1.227,-0.497,3.455,-206.055,-360.474,-118.042
0.324,-0.836,3.978,-106.384,-397.095,5.676
3.846,-0.705,3.961,-36.499,-305.054,69.275
3.153,-0.251,2.974,-19.043,-83.984,81.360
0.887,-0.024,1.048,-154.602,267.151,27.954
-1.538,-0.062,-1.509,-198.914,205.933,84.961
-1.020,0.363,-1.102,-54.871,-59.265,153.687
0.473,1.271,0.703,37.476,-116.577,81.543
0.953,1.043,1.295,51.147,-77.332,-48.279
1.127,-0.066,1.387,23.560,-25.879,-62.561
0.874,-0.276,1.073,6.714,19.531,-48.645
0.583,-0.123,0.764,4.700,45.288,21.179
0.328,0.558,0.484,12.268,33.325,41.382
0.312,0.739,0.460,33.081,13.489,15.747
0.355,0.704,0.455,45.349,6.897,-8.667
0.424,0.592,0.493,52.368,-0.732,-23.315
0.513,0.473,0.569,42.847,-15.137,-14.282
0.619,0.373,0.721,39.001,-18.738,-1.831
0.612,0.427,0.743,48.645,-22.034,10.925
0.596,0.552,0.743,55.237,-22.766,9.583
0.625,0.565,0.766,68.909,-16.296,-9.766
0.680,0.532,0.814,74.097,-8.423,-24.475
0.689,0.463,0.831,74.524,0.122,-37.231
0.687,0.361,0.843,68.970,16.296,-48.523
0.643,0.214,0.812,69.397,23.071,-47.546
0.625,0.211,0.791,72.754,26.489,-32.532
0.642,0.294,0.811,74.402,24.780,-23.499
0.654,0.342,0.815,76.843,24.231,-18.616
0.652,0.356,0.825,81.909,28.748,-22.278
0.650,0.324,0.808,86.365,33.203,-29.724
0.660,0.277,0.766,100.403,41.199,-47.119
0.718,0.169,0.736,103.638,41.870,-48.035
0.754,0.131,0.777,101.624,38.635,-32.532
0.773,0.113,0.859,100.037,38.757,-23.193
0.762,0.086,0.892,97.473,40.710,-17.456
0.744,0.030,0.928,97.717,51.758,-21.973
0.776,-0.095,0.846,105.041,60.913,-28.992
0.786,-0.139,0.788,103.699,69.580,-27.039
0.754,-0.190,0.796,87.036,68.176,-11.902
0.737,-0.199,0.826,66.956,67.993,8.301
0.731,-0.196,0.838,49.805,73.730,34.546
0.755,-0.172,0.784,56.396,77.576,34.668
0.785,-0.157,0.691,74.402,83.374,25.574
0.775,-0.110,0.555,72.876,84.167,29.175
0.757,-0.099,0.537,42.847,81.787,56.824
0.726,-0.120,0.593,25.696,79.712,71.350
0.710,-0.100,0.655,16.663,77.087,81.299
0.717,-0.049,0.700,29.053,74.585,85.754
0.799,0.074,0.600,44.739,78.003,76.477
0.839,0.097,0.464,65.613,91.614,44.189
0.788,0.028,0.333,59.326,95.825,33.936
0.736,-0.016,0.337,45.044,95.947,33.142
0.703,-0.027,0.356,22.400,85.327,54.993
0.761,0.084,0.392,23.743,77.454,65.857
0.826,0.188,0.345,36.011,72.266,75.378
0.884,0.305,0.228,36.316,74.768,70.129
0.863,0.275,0.175,35.583,77.881,55.725
0.804,0.225,0.129,37.292,77.332,25.330
0.710,0.196,0.084,34.302,69.153,26.672
0.731,0.222,0.123,18.066,45.959,55.786
0.889,0.315,0.141,15.564,40.039,66.223
0.949,0.349,0.128,17.395,39.978,66.711
0.956,0.360,0.112,19.775,49.683,42.664
0.888,0.315,0.032,20.447,53.955,28.442
0.835,0.287,0.043,22.034,47.241,10.620
0.826,0.301,0.085,19.836,39.673,13.794
0.868,0.337,0.103,11.902,32.654,23.437
0.901,0.375,0.119,-12.207,27.283,38.574
0.915,0.400,0.135,-21.057,28.931,34.485
0.899,0.395,0.103,-25.208,39.001,13.428
0.871,0.368,0.016,-24.963,40.283,3.723
0.893,0.328,0.013,-33.264,32.593,1.831
0.943,0.274,0.078,-42.480,29.236,9.827
0.956,0.270,0.088,-52.063,27.344,17.761
0.949,0.287,0.053,-62.500,26.123,24.292
0.951,0.306,-0.055,-65.002,24.048,21.240
0.971,0.272,-0.063,-56.824,14.648,3.906
0.959,0.219,-0.080,-39.185,10.925,-7.080
0.973,0.214,-0.097,-16.418,8.606,-16.479
1.010,0.225,-0.129,16.602,10.010,-23.926
1.100,0.252,-0.208,18.799,16.846,-27.771
1.121,0.226,-0.248,16.052,37.109,-38.086
1.108,0.169,-0.254,21.301,47.119,-38.147
1.064,0.217,-0.226,50.049,55.725,-12.024
0.961,0.563,-0.262,64.392,45.288,5.066
1.019,0.706,-0.259,70.801,21.912,12.878
1.098,0.776,-0.210,56.335,-4.578,13.611
1.108,0.829,-0.118,40.161,0.488,11.169
1.074,0.810,-0.098,5.371,11.719,-3.296
1.026,0.599,-0.042,-10.681,14.893,-11.719
1.023,0.416,0.005,-23.499,16.846,-19.531
1.026,0.224,0.051,-31.067,20.325,-29.907
1.018,-0.079,0.081,-27.771,22.156,-29.785
0.989,-0.156,0.075,-17.456,21.179,-12.695
0.918,-0.137,0.032,-9.277,17.273,0.366
0.891,-0.066,-0.001,10.986,5.066,17.151
0.863,0.118,-0.065,19.775,-2.319,19.409
0.861,0.209,-0.071,26.062,-9.094,18.982
0.869,0.287,-0.053,29.480,-18.311,17.151
0.917,0.390,0.011,26.306,-20.142,16.357
0.948,0.409,0.040,12.817,-18.250,10.803

1.211,0.860,-0.594,-65.247,-60.791,92.529
1.234,0.867,-0.645,-78.613,-57.312,101.807
1.216,0.844,-0.798,-85.632,-52.429,98.083
1.191,0.838,-0.875,-104.553,-54.626,98.145
1.164,0.901,-0.996,-114.929,-63.599,107.422
1.184,0.947,-1.040,-121.582,-76.111,115.967
1.232,0.974,-1.059,-109.741,-107.117,112.061
1.348,0.987,-1.110,-91.125,-122.864,101.685
1.350,1.016,-1.153,-38.269,-147.644,70.984
1.025,1.173,-1.128,-12.695,-158.630,48.523
0.745,1.307,-1.048,3.662,-173.035,19.836
0.491,1.403,-0.950,-3.601,-200.806,-63.721
-0.018,1.322,-0.681,-36.133,-201.172,-114.197
-0.444,1.108,-0.412,-132.324,-199.890,-199.585
-1.525,0.298,0.393,-162.476,-211.365,-221.313
-2.058,-0.150,0.866,-146.179,-263.916,-200.012
-2.823,-0.596,1.891,-109.863,-302.795,-187.561
-2.920,-0.666,2.512,-97.534,-410.889,-159.241
-1.061,-0.877,3.940,-143.250,-466.370,-62.317
1.313,-0.781,4.000,-170.837,-492.371,99.915
3.532,-0.368,4.000,-91.248,-225.891,224.304
1.789,0.639,1.484,-32.532,59.326,62.927
-0.781,0.712,-0.494,-73.914,254.333,-103.882
-1.595,0.206,-1.516,-138.245,116.943,7.568
-0.655,0.187,-0.647,-16.968,-123.901,75.317
0.504,0.649,0.991,60.974,-144.653,27.832
0.810,0.639,1.391,68.909,-126.465,2.625
0.974,0.446,1.528,10.498,-41.260,-11.230
0.761,0.229,1.295,-1.221,-2.686,-9.766
0.580,0.322,1.063,-2.930,28.259,7.629
0.300,0.490,0.659,1.709,29.480,6.836
0.250,0.510,0.555,14.160,18.433,3.174
0.354,0.617,0.621,24.170,9.277,1.465
0.453,0.716,0.754,36.560,1.160,-2.625
0.550,0.781,0.887,49.316,-0.671,-23.193
0.674,0.700,1.052,50.781,6.165,-35.461
0.687,0.622,1.057,56.458,26.733,-54.199
0.652,0.547,0.947,58.228,35.400,-56.396
0.642,0.514,0.888,56.213,40.405,-53.955
0.640,0.463,0.858,50.720,41.504,-45.837
0.609,0.383,0.888,52.979,40.955,-42.664
0.585,0.371,0.905,64.697,42.480,-39.185
0.548,0.350,0.869,67.688,43.579,-36.804
0.558,0.333,0.835,67.383,44.128,-31.433
0.587,0.323,0.788,65.735,45.776,-19.043
0.627,0.309,0.706,64.087,46.448,-14.343
0.617,0.310,0.723,56.519,44.983,-1.282
0.615,0.330,0.799,53.284,42.847,6.592
0.651,0.325,0.816,51.453,42.053,11.902
0.699,0.303,0.797,51.453,48.462,13.672
0.760,0.229,0.709,51.025,52.856,13.489
0.753,0.192,0.695,41.565,57.556,18.921
0.710,0.188,0.793,33.997,57.800,27.283
0.710,0.212,0.854,29.175,59.265,36.255
0.719,0.218,0.880,33.875,72.083,31.067
0.697,0.138,0.829,40.039,80.688,18.066
0.678,0.091,0.794,50.537,89.905,4.822
0.670,0.082,0.719,52.673,89.600,10.437
0.679,0.103,0.706,51.697,87.708,20.752
0.688,0.136,0.718,47.241,86.731,40.527
0.726,0.211,0.726,47.302,90.088,43.030
0.734,0.225,0.698,50.781,102.051,29.785
0.719,0.168,0.618,53.894,105.774,19.714
0.725,0.116,0.575,60.059,106.201,9.949
0.726,0.089,0.547,79.590,100.098,0.488
0.700,0.143,0.518,84.167,95.764,6.958
0.709,0.181,0.502,75.867,87.830,27.344
0.784,0.195,0.452,69.580,86.121,30.945
0.802,0.183,0.414,64.697,86.853,30.273
0.798,0.174,0.358,60.547,89.294,26.550
0.767,0.189,0.229,59.143,87.708,28.076
0.764,0.202,0.211,57.251,75.928,38.025
0.785,0.269,0.224,58.411,69.824,43.152
0.810,0.308,0.203,57.434,66.040,47.363
0.841,0.332,0.178,45.593,65.796,48.828
0.862,0.350,0.137,38.757,67.200,45.837
0.868,0.358,0.107,31.128,63.354,45.776
0.878,0.398,0.079,30.640,59.082,48.157
0.875,0.423,0.083,32.227,54.749,47.058
0.864,0.447,0.066,37.476,49.622,31.738
0.848,0.419,0.011,35.583,47.974,22.156
0.839,0.383,0.004,24.658,43.518,16.602
0.818,0.378,-0.028,17.395,39.551,23.071
0.819,0.402,-0.024,7.812,33.630,32.654
0.832,0.417,0.017,-6.287,19.226,38.940
0.891,0.441,0.125,-7.507,15.076,31.799
0.937,0.449,0.170,-6.836,19.348,12.085
0.980,0.401,0.249,-6.714,26.611,-0.854
0.959,0.350,0.255,-5.493,34.851,-14.038
0.925,0.304,0.236,-3.357,46.082,-24.109
0.914,0.264,0.152,-9.521,47.791,-16.418
0.936,0.257,0.131,-41.870,48.889,9.644
0.974,0.225,0.161,-53.955,49.866,14.893
0.971,0.217,0.137,-43.762,58.960,3.174
0.906,0.233,0.054,-29.602,63.171,-9.094
0.879,0.252,0.014,-16.174,63.538,-20.203
0.867,0.295,-0.044,-2.930,53.833,-25.085
0.896,0.445,-0.187,-7.446,46.265,-17.639
0.928,0.488,-0.206,-27.039,36.621,-3.296
0.980,0.484,-0.232,-25.208,38.269,-11.658
0.957,0.472,-0.321,2.747,49.744,-50.415
0.853,0.420,-0.484,9.216,49.866,-61.584
0.834,0.387,-0.493,8.606,42.664,-57.617
0.840,0.378,-0.462,13.062,14.709,-29.358
0.890,0.442,-0.360,21.790,-0.366,-20.081
0.949,0.441,-0.288,33.447,-20.935,-17.883
1.033,0.391,-0.150,31.189,-21.301,-15.686
1.053,0.373,-0.091,23.865,-19.287,-9.338
1.069,0.359,-0.029,11.292,-18.616,6.226
1.118,0.365,0.092,11.292,-19.043,11.047
1.133,0.381,0.129,13.794,-14.709,12.817
1.108,0.391,0.145,13.123,-10.315,9.949
1.085,0.387,0.134,8.301,-1.343,2.258
1.031,0.387,0.086,3.906,2.991,-1.099
0.996,0.378,0.059,-1.831,7.141,-4.456
0.968,0.353,0.035,-13.794,13.489,-8.667
0.932,0.273,-0.003,-17.273,14.893,-9.094
0.918,0.238,-0.013,-15.320,12.695,-9.827
0.911,0.194,-0.016,-10.437,9.399,-10.376

1.191,0.831,-0.756,-47.607,-66.895,59.937
1.247,0.909,-0.864,-69.336,-96.313,98.267
1.390,1.096,-0.992,-84.839,-113.403,117.737
1.474,1.160,-1.010,-110.229,-141.235,116.760
1.629,1.204,-0.979,-120.911,-148.376,100.952
1.715,1.155,-0.940,-130.981,-149.231,78.064
1.769,1.072,-0.910,-132.690,-127.625,11.475
1.581,0.933,-1.032,-119.873,-106.506,-22.522
1.300,0.904,-1.176,-99.670,-68.115,-90.149
0.598,0.829,-1.383,-98.511,-59.570,-122.314
0.164,0.764,-1.437,-104.858,-71.411,-180.725
-1.126,0.470,-1.210,-113.098,-104.919,-213.196
-1.787,0.220,-0.813,-120.911,-164.490,-229.248
-2.416,-0.052,-0.174,-119.019,-299.377,-183.777
-3.378,-0.888,2.081,-106.079,-353.332,-164.062
-3.397,-1.430,3.323,-103.271,-443.787,-107.361
-1.478,-1.061,4.000,-132.202,-493.957,70.129
0.733,0.984,4.000,-124.756,-462.219,621.887
4.000,4.000,3.457,-50.171,-276.794,500.122
2.310,3.056,2.023,-27.771,331.177,-386.658
-2.610,-1.122,-1.630,-135.254,449.158,-450.256
-2.256,-1.996,-2.321,-230.103,328.674,-201.477
-1.179,-1.786,-1.712,-60.059,-88.379,171.082
0.282,0.310,0.775,98.450,-202.332,157.776
0.797,0.993,1.572,102.417,-194.153,111.694
1.320,0.895,1.784,29.480,-108.887,77.515
1.014,0.531,1.337,-33.691,56.519,-25.391
0.138,0.058,0.322,-36.804,78.796,-36.072
-0.004,0.051,0.107,-31.372,63.232,-14.343
0.065,0.177,0.150,12.756,-6.592,29.053
0.440,0.517,0.590,38.330,-29.297,29.297
0.597,0.620,0.782,62.866,-30.579,6.958
0.725,0.666,0.917,61.035,-16.113,-5.310
0.700,0.640,0.866,50.293,0.244,-13.733
0.666,0.589,0.802,20.691,14.404,-12.146
0.666,0.504,0.783,15.930,12.817,-8.362
0.677,0.508,0.818,35.034,11.841,-16.174
0.733,0.516,0.858,52.612,13.367,-30.090
0.758,0.487,0.858,68.298,16.418,-45.227
0.764,0.448,0.872,74.463,22.827,-54.443
0.773,0.376,0.950,62.622,25.635,-44.189
0.777,0.336,0.990,40.894,38.574,-23.193
0.750,0.247,0.968,46.387,47.668,-24.841
0.709,0.222,0.904,77.454,60.181,-39.612
0.664,0.179,0.772,85.999,60.669,-39.246
0.663,0.148,0.750,84.961,58.533,-30.334
0.664,0.111,0.757,63.171,53.833,5.005
0.646,0.090,0.799,50.964,53.528,23.987
0.653,0.135,0.793,44.128,52.979,45.593
0.742,0.241,0.717,53.040,52.734,41.382
0.770,0.263,0.697,66.223,54.626,28.564
0.768,0.262,0.699,81.970,64.392,3.113
0.708,0.230,0.752,81.238,68.604,-1.404
0.695,0.222,0.797,76.050,70.374,5.188
0.731,0.212,0.813,76.172,71.960,7.874
0.756,0.198,0.763,78.613,75.500,6.165
0.775,0.174,0.694,82.214,81.726,-2.930
0.801,0.107,0.569,81.909,82.886,-5.432
0.798,0.086,0.538,79.712,82.520,-4.028
0.742,0.065,0.587,77.637,81.116,-0.366
0.714,0.070,0.633,74.646,79.346,5.188
0.712,0.088,0.657,68.298,77.698,18.860
0.785,0.105,0.574,67.078,80.750,20.447
0.795,0.089,0.495,64.087,90.942,9.705
0.709,0.051,0.350,56.946,93.445,7.080
0.665,0.040,0.302,44.250,92.041,10.986
0.636,0.044,0.296,6.348,79.285,39.001
0.663,0.124,0.361,-10.132,71.655,57.190
0.712,0.178,0.381,-17.456,64.331,68.665
0.780,0.244,0.393,-7.874,64.880,57.861
0.788,0.260,0.378,6.287,66.345,42.236
0.795,0.287,0.330,23.743,67.505,23.254
0.827,0.373,0.196,14.709,66.223,26.489
0.865,0.383,0.178,-22.644,60.364,43.579
0.937,0.369,0.224,-31.189,57.739,47.363
0.959,0.366,0.268,-13.367,53.284,35.034
0.968,0.405,0.331,2.258,54.321,23.743
0.965,0.423,0.295,12.817,58.899,12.451
0.950,0.416,0.250,11.719,68.115,-8.179
0.935,0.328,0.208,4.944,70.679,-13.611
0.943,0.288,0.192,-13.672,74.036,-6.897
0.976,0.243,0.089,-21.362,75.256,-0.977
0.984,0.217,0.051,-22.034,75.134,-0.061
0.988,0.192,0.029,-1.709,72.266,-10.315
0.953,0.197,-0.099,9.033,72.205,-12.146
0.924,0.195,-0.146,14.038,69.214,-9.155
0.916,0.142,-0.176,8.667,67.139,-6.165
0.911,0.106,-0.205,0.916,67.139,-1.221
0.906,0.066,-0.223,-0.488,67.078,11.353
0.903,0.080,-0.238,11.414,61.401,16.968
0.916,0.156,-0.261,44.678,34.912,24.414
0.989,0.366,-0.246,54.626,23.743,28.137
1.015,0.460,-0.223,54.749,17.029,32.349
1.004,0.580,-0.236,49.316,18.860,29.785
0.979,0.615,-0.255,42.358,20.081,26.001
0.958,0.649,-0.261,30.945,14.709,21.790
0.945,0.721,-0.229,27.161,9.949,21.240
0.963,0.728,-0.204,16.663,3.662,16.052
0.997,0.666,-0.166,10.132,5.005,9.521
0.994,0.596,-0.147,4.272,8.850,0.732
0.978,0.519,-0.142,-4.089,11.658,-19.470
1.000,0.314,-0.130,-11.475,9.033,-25.879
1.010,0.192,-0.116,-28.687,11.353,-22.705
0.977,0.009,-0.114,-28.809,12.939,-17.700
0.948,-0.023,-0.127,-8.850,8.484,-4.822
0.902,0.065,-0.135,5.493,2.319,3.296
0.902,0.146,-0.111,17.761,-5.188,10.864
0.920,0.218,-0.073,26.306,-15.320,16.968
0.956,0.310,-0.010,23.315,-14.404,13.977
0.956,0.324,0.007,12.939,-6.836,4.395
0.962,0.323,0.040,9.338,-4.944,1.648
0.972,0.322,0.051,7.141,-4.089,0.549
0.977,0.325,0.055,5.493,-1.404,-0.488
0.976,0.337,0.043,6.470,-0.305,-1.465
0.977,0.338,0.034,6.592,2.136,-4.333
0.967,0.331,0.015,4.639,3.418,-5.554
0.962,0.325,0.007,0.610,4.150,-6.287
0.958,0.324,0.006,-1.526,3.906,-5.371
0.955,0.331,0.006,-4.211,3.662,-3.601

1.197,0.975,-0.536,-64.941,-61.218,75.500
1.210,0.983,-0.605,-96.497,-55.908,63.049
1.206,0.939,-0.754,-111.511,-51.086,55.176
1.194,0.901,-0.828,-134.155,-47.180,41.016
1.209,0.846,-0.990,-140.686,-51.880,38.635
1.232,0.864,-1.069,-143.616,-61.279,42.725
1.284,0.913,-1.135,-130.737,-92.285,64.270
1.425,1.007,-1.151,-109.131,-110.779,63.721
1.413,1.041,-1.146,-34.241,-135.132,-3.357
1.081,1.172,-1.240,5.127,-141.296,-49.438
0.787,1.244,-1.348,28.503,-160.828,-107.117
-0.085,1.254,-1.404,-16.724,-180.115,-119.324
-0.587,0.982,-1.101,-89.233,-209.900,-129.578
-1.572,0.068,0.052,-181.396,-276.978,-129.028
-1.995,-0.312,0.675,-158.569,-309.387,-106.628
-2.450,-0.472,1.318,-41.016,-371.399,-80.933
-3.099,-0.236,2.903,-17.029,-403.686,-68.909
-2.595,-0.110,3.684,-54.626,-490.234,15.869
1.068,0.087,4.000,-69.153,-500.732,92.773
3.254,0.102,4.000,-69.702,-227.905,126.404
1.911,-0.246,2.012,-51.819,49.255,-1.404
-0.519,-0.309,-0.112,-48.584,245.178,-100.159
-1.697,-0.127,-1.468,-119.873,122.498,64.453
-0.675,0.688,-0.630,-69.092,-15.930,105.164
-0.006,0.868,0.287,66.467,-97.046,-18.250
0.817,0.228,1.400,44.556,-77.209,-33.752
1.051,-0.042,1.642,-5.066,-13.855,5.737
0.799,0.173,1.353,-4.822,19.043,15.991
0.468,0.283,0.953,-5.432,44.189,14.526
0.187,0.324,0.572,4.578,52.551,3.723
0.029,0.518,0.246,19.043,36.438,2.441
0.124,0.650,0.347,32.104,-3.906,2.441
0.446,0.741,0.798,29.907,-16.113,0.183
0.580,0.708,0.959,21.790,-14.465,-7.507
0.649,0.596,1.021,18.921,-4.089,-13.123
0.618,0.563,0.972,20.142,7.202,-19.897
0.577,0.554,0.905,31.494,22.400,-34.424
0.553,0.523,0.821,34.668,24.170,-38.086
0.568,0.482,0.822,32.288,23.193,-35.278
0.608,0.427,0.855,31.372,22.522,-30.457
0.617,0.401,0.876,31.494,23.437,-26.184
0.614,0.351,0.900,34.607,32.349,-26.611
0.547,0.223,0.916,40.283,38.574,-29.968
0.522,0.213,0.863,51.392,46.753,-23.926
0.572,0.324,0.724,49.072,45.471,-9.888
0.615,0.383,0.730,41.626,41.016,6.287
0.650,0.419,0.785,31.921,35.217,20.325
0.662,0.430,0.944,35.461,38.635,13.916
0.625,0.401,0.980,57.678,58.899,-18.494
0.567,0.280,0.874,68.909,69.763,-32.959
0.609,0.219,0.759,72.998,76.416,-35.706
0.663,0.183,0.674,58.228,74.402,-5.249
0.693,0.189,0.713,47.241,68.359,15.503
0.677,0.227,0.806,45.471,60.059,38.513
0.645,0.297,0.962,56.580,63.171,34.668
0.633,0.302,0.964,70.923,72.327,21.057
0.647,0.275,0.898,93.201,93.689,-12.329
0.754,0.140,0.717,92.651,98.083,-16.724
0.762,0.086,0.675,69.824,98.755,4.333
0.683,0.065,0.668,58.472,96.802,19.226
0.651,0.097,0.702,52.856,93.018,40.710
0.702,0.212,0.699,59.631,94.971,43.884
0.753,0.251,0.646,66.345,100.708,39.490
0.788,0.249,0.576,55.969,114.868,22.034
0.789,0.162,0.479,40.344,117.004,22.766
0.772,0.129,0.465,15.381,111.084,44.739
0.705,0.149,0.510,15.991,106.018,53.284
0.677,0.206,0.529,27.100,101.074,55.054
0.670,0.283,0.518,62.256,95.642,38.635
0.740,0.371,0.368,73.608,96.985,24.231
0.782,0.338,0.246,61.523,106.079,1.953
0.755,0.180,0.124,43.030,106.079,0.305
0.721,0.123,0.144,25.269,101.379,6.714
0.691,0.114,0.169,6.714,85.205,36.987
0.672,0.219,0.200,8.362,74.707,50.598
0.715,0.295,0.204,23.315,55.115,55.664
0.844,0.347,0.177,25.513,51.270,49.683
0.871,0.342,0.174,19.470,51.208,43.396
0.867,0.343,0.161,-15.442,55.298,43.762
0.804,0.372,0.086,-38.086,56.213,49.866
0.778,0.407,0.046,-65.063,49.988,62.134
0.789,0.522,-0.024,-63.416,40.710,62.683
0.840,0.561,-0.057,-52.002,29.358,56.641
0.899,0.583,-0.056,-16.846,17.334,22.156
0.960,0.600,-0.023,-7.080,21.362,0.610
0.970,0.569,-0.038,-19.043,40.405,-34.607
0.945,0.438,-0.158,-31.677,50.110,-46.692
0.938,0.363,-0.223,-48.523,52.185,-49.133
0.957,0.266,-0.210,-46.204,43.030,-40.710
1.005,0.258,-0.156,-33.386,34.546,-32.654
1.062,0.280,-0.126,7.812,32.776,-28.137
1.119,0.384,-0.210,20.264,40.833,-30.518
1.110,0.406,-0.287,12.817,51.208,-40.833
1.038,0.351,-0.396,2.258,51.819,-40.588
0.975,0.344,-0.430,-2.991,50.110,-33.752
0.901,0.411,-0.489,22.522,34.668,-16.785
0.893,0.449,-0.484,42.419,23.743,-12.146
0.893,0.472,-0.439,55.908,6.226,0.671
0.913,0.529,-0.296,50.354,-0.977,9.644
0.944,0.542,-0.215,29.541,-11.414,17.456
1.004,0.465,-0.013,19.409,-12.878,16.724
1.032,0.395,0.076,14.832,-12.268,13.245
1.046,0.329,0.135,25.269,-5.737,-1.160
1.025,0.264,0.169,33.020,-2.625,-7.446
1.012,0.262,0.159,32.349,0.977,-7.141
0.992,0.261,0.119,24.902,2.686,-3.601
0.980,0.259,0.095,19.226,4.578,-2.075
0.965,0.258,0.068,20.935,8.301,-8.911
0.927,0.246,0.019,23.254,9.583,-13.000
0.908,0.239,0.002,21.667,8.423,-13.123
0.882,0.261,-0.010,20.081,5.493,-9.827
0.886,0.288,0.001,20.752,-2.258,-2.380
0.924,0.344,0.034,22.644,-4.761,-0.610
0.947,0.358,0.052,23.743,-5.615,-0.854
0.966,0.361,0.070,21.484,-4.150,-3.540
0.978,0.361,0.080,17.761,-2.563,-4.211
0.974,0.353,0.077,4.150,-0.610,-2.686
0.960,0.320,0.069,-0.610,-0.427,-1.709
0.952,0.312,0.060,-1.160,-0.549,-1.709

1.284,1.073,-0.640,-27.222,-47.546,59.937
1.242,1.171,-0.802,-57.739,-44.067,55.603
1.195,1.229,-1.093,-85.571,-46.692,55.054
1.209,1.173,-1.183,-133.667,-59.509,54.382
1.245,0.981,-1.208,-137.817,-68.726,50.049
1.256,0.900,-1.178,-128.052,-80.505,44.434
1.247,0.864,-1.141,-89.844,-116.943,43.640
1.163,0.914,-0.980,-69.214,-144.775,49.438
1.097,0.937,-0.846,-32.349,-200.928,42.419
0.914,0.929,-0.588,-18.433,-217.407,22.095
0.809,0.890,-0.475,-8.240,-232.727,-26.855
0.488,0.763,-0.185,-11.292,-231.873,-55.603
0.151,0.641,0.010,-16.785,-221.863,-95.337
-0.384,0.462,0.273,-39.490,-187.683,-192.200
-1.709,-0.099,0.979,-59.875,-184.387,-221.863
-2.130,-0.382,1.352,-93.140,-245.361,-181.763
-2.048,-0.667,2.147,-92.407,-300.720,-128.113
-1.668,-0.605,2.677,-63.782,-395.996,-21.545
0.283,0.053,3.965,-61.523,-420.837,54.504
2.302,0.518,4.000,-82.092,-401.184,146.912
3.640,0.697,3.798,-117.249,2.075,37.842
0.266,-0.133,0.614,-89.172,263.855,-155.640
-1.616,-0.488,-1.079,-155.945,253.418,-80.872
-1.184,-0.364,-1.155,-187.134,62.805,96.008
-0.287,0.124,-0.260,28.809,-145.386,100.464
0.586,0.840,0.962,100.159,-132.507,21.912
0.775,0.633,1.223,72.388,-89.661,-15.869
0.872,0.268,1.282,-27.222,-1.526,-14.587
0.679,0.064,0.850,-29.663,26.184,-9.277
0.458,0.152,0.602,-14.160,35.034,4.944
0.208,0.297,0.402,-4.578,24.048,9.766
0.237,0.360,0.415,19.775,-2.258,7.996
0.412,0.411,0.555,29.480,-11.047,1.648
0.500,0.392,0.655,32.959,-16.296,-2.869
0.586,0.366,0.761,20.447,-19.165,4.395
0.650,0.367,0.859,17.578,-14.648,6.714
0.610,0.405,0.822,27.405,-2.502,-0.427
0.562,0.428,0.761,32.471,-0.916,-3.723
0.572,0.416,0.779,36.804,-1.526,-4.944
0.596,0.411,0.813,41.016,-5.005,-1.770
0.673,0.394,0.868,40.222,-4.944,-0.305
0.709,0.383,0.880,38.574,3.174,0.061
0.716,0.384,0.904,36.865,8.423,2.502
0.706,0.380,0.923,34.424,12.695,5.798
0.697,0.373,0.939,33.752,21.851,8.179
0.667,0.355,0.952,36.133,28.137,7.019
0.658,0.333,0.919,41.443,43.152,3.357
0.652,0.297,0.776,44.495,48.889,2.930
0.620,0.327,0.734,47.546,50.659,5.737
0.590,0.387,0.729,46.082,41.138,21.362
0.612,0.466,0.806,40.833,34.729,29.358
0.642,0.456,0.857,32.654,35.278,30.762
0.693,0.395,0.846,31.921,42.297,25.269
0.702,0.369,0.804,31.982,49.683,19.897
0.698,0.356,0.779,24.780,56.396,24.597
0.681,0.381,0.810,17.700,56.091,34.546
0.684,0.399,0.850,9.705,57.190,45.776
0.726,0.402,0.893,10.742,62.317,41.809
0.743,0.383,0.898,14.465,70.923,31.738
0.746,0.350,0.891,27.100,93.384,2.747
0.731,0.286,0.821,33.447,102.234,-7.874
0.723,0.269,0.797,40.894,105.774,-9.583
0.721,0.250,0.843,42.297,103.638,-4.150
0.723,0.242,0.882,49.316,106.018,-0.488
0.709,0.209,0.873,54.626,112.488,-6.348
0.696,0.180,0.825,59.387,120.422,-15.381
0.675,0.142,0.762,65.735,131.531,-25.757
0.647,0.090,0.617,67.017,130.859,-21.362
0.655,0.099,0.560,63.354,116.577,5.310
0.666,0.184,0.526,57.739,108.276,21.179
0.667,0.231,0.522,51.575,103.210,32.715
0.666,0.261,0.512,46.082,104.858,33.325
0.661,0.258,0.443,46.936,108.704,25.452
0.649,0.245,0.396,46.204,108.093,16.968
0.613,0.227,0.370,40.527,103.516,22.583
0.593,0.228,0.389,29.907,98.694,34.546
0.575,0.240,0.421,5.859,91.125,61.462
0.571,0.277,0.493,5.920,89.600,63.599
0.590,0.292,0.515,45.105,92.957,28.320
0.626,0.302,0.484,64.514,96.619,5.920
0.620,0.278,0.445,66.467,100.220,-5.798
0.621,0.236,0.398,27.527,102.966,0.610
0.707,0.105,0.310,6.714,103.271,6.409
0.769,0.036,0.213,-3.296,108.643,8.545
0.753,-0.015,0.053,4.028,109.863,11.536
0.704,0.037,-0.002,13.306,106.628,20.142
0.658,0.126,-0.052,23.499,88.928,46.692
0.638,0.370,-0.125,24.963,77.942,55.481
0.680,0.499,-0.172,22.217,57.678,50.842
0.839,0.685,-0.323,11.841,49.194,41.748
0.920,0.691,-0.354,-46.143,42.603,32.593
0.942,0.583,-0.347,-72.571,45.288,26.855
0.917,0.509,-0.350,-81.116,50.781,13.123
0.900,0.449,-0.361,-55.298,61.157,-19.348
0.877,0.444,-0.412,-34.180,59.937,-23.804
0.862,0.514,-0.450,1.770,35.583,-7.019
0.923,0.732,-0.544,9.216,16.785,-1.526
0.982,0.784,-0.586,9.094,4.333,-7.812
0.994,0.771,-0.645,17.090,20.325,-62.073
0.830,0.653,-0.802,29.114,32.410,-94.482
0.724,0.612,-0.830,32.043,12.939,-89.050
0.790,0.549,-0.632,20.142,-16.663,-46.082
0.931,0.537,-0.423,13.489,-68.848,28.015
1.237,0.544,-0.025,20.569,-77.209,35.645
1.335,0.526,0.119,23.010,-71.472,31.128
1.375,0.487,0.206,9.949,-36.072,17.700
1.325,0.395,0.231,5.859,-19.104,11.475
1.260,0.389,0.195,12.817,2.991,7.751
1.131,0.448,0.091,17.090,9.155,9.155
1.069,0.476,0.033,18.066,14.099,8.911
1.006,0.487,-0.029,6.714,21.973,2.686
0.897,0.441,-0.118,-5.615,23.560,1.038
0.865,0.391,-0.136,-26.489,21.729,0.305
0.819,0.286,-0.157,-27.954,20.020,-2.441
0.796,0.245,-0.168,-18.738,14.160,-7.690
0.781,0.184,-0.161,-13.794,7.996,-6.470
0.790,0.170,-0.148,-9.766,1.465,-2.380
0.800,0.169,-0.138,-1.648,-9.705,6.592
0.799,0.197,-0.146,3.662,-13.794,8.484

1.385,0.783,-0.839,-16.602,-74.158,68.298
1.434,0.844,-0.946,-44.312,-97.168,98.633
1.434,0.891,-0.926,-69.702,-111.145,123.169
1.395,0.877,-0.833,-88.318,-137.390,137.085
1.397,0.814,-0.649,-77.515,-145.081,119.812
1.505,0.787,-0.584,-62.683,-143.921,95.337
1.619,0.781,-0.570,-53.711,-98.755,36.133
1.466,0.707,-0.655,-67.383,-70.129,0.366
1.231,0.607,-0.671,-123.779,-54.871,-33.875
0.682,0.408,-0.587,-143.677,-71.411,-27.466
0.455,0.323,-0.546,-116.455,-127.380,-7.080
-0.049,0.141,-0.426,-82.397,-154.724,-8.423
-0.364,0.139,-0.307,-45.959,-178.833,-10.925
-1.160,0.442,0.275,-31.921,-226.929,13.916
-1.556,0.605,0.812,-62.012,-257.812,27.649
-1.828,0.655,1.462,-104.248,-326.233,-8.362
-1.469,0.268,2.863,-96.130,-363.770,-27.893
-0.430,0.050,3.620,-19.043,-434.936,48.279
3.121,0.216,4.000,21.790,-381.897,93.567
3.300,0.295,3.515,18.250,-188.782,61.646
1.536,0.120,1.913,-95.215,254.211,-101.562
-1.758,-0.552,-1.259,-148.132,252.258,-60.608
-1.588,-0.428,-1.308,-73.242,-16.113,93.445
-0.157,0.681,0.158,17.822,-96.985,74.829
0.280,0.808,0.742,67.444,-89.783,-31.555
0.729,0.027,1.264,51.758,-59.387,-54.016
0.773,-0.195,1.263,44.250,-30.396,-51.208
0.686,-0.156,1.153,45.898,13.733,-21.606
0.365,0.174,0.838,50.842,24.963,-15.686
0.271,0.333,0.710,67.444,22.705,-15.381
0.293,0.617,0.609,61.157,14.465,-8.240
0.408,0.653,0.683,33.569,-2.136,4.944
0.621,0.578,0.898,34.302,-3.418,0.793
0.677,0.544,0.990,39.490,0.854,-4.761
0.705,0.524,1.071,50.659,19.409,-17.700
0.679,0.484,1.120,62.500,30.762,-29.419
0.653,0.475,1.054,85.693,47.913,-46.875
0.631,0.532,0.875,85.937,50.537,-44.922
0.624,0.551,0.845,78.247,49.561,-38.269
0.614,0.511,0.864,53.406,45.410,-27.832
0.565,0.271,0.967,47.791,46.326,-29.480
0.532,0.155,0.992,57.190,51.758,-29.480
0.586,0.043,0.912,62.683,50.110,-14.465
0.668,0.109,0.923,60.303,45.654,11.292
0.751,0.245,1.010,38.269,41.687,58.167
0.809,0.494,1.242,31.067,48.767,59.204
0.755,0.540,1.290,37.292,84.900,15.076
0.576,0.373,1.112,47.607,105.896,-15.625
0.524,0.188,0.900,57.373,121.765,-38.879
0.499,0.003,0.685,54.687,123.413,-31.311
0.493,-0.205,0.488,37.964,111.023,-2.075
0.490,-0.178,0.532,9.216,84.290,54.810
0.467,0.133,0.696,9.949,76.965,64.758
0.457,0.272,0.756,15.869,74.219,62.744
0.449,0.334,0.787,22.278,80.200,37.964
0.532,0.264,0.701,28.076,85.876,20.447
0.582,0.209,0.648,48.035,100.220,-5.066
0.546,0.216,0.589,50.659,106.018,-6.348
0.513,0.230,0.566,44.189,108.643,-2.014
0.487,0.209,0.564,26.794,114.197,-2.502
0.485,0.112,0.481,32.654,119.263,-15.442
0.538,0.094,0.350,64.087,124.390,-43.579
0.672,0.117,0.043,64.331,123.230,-42.603
0.722,0.145,-0.021,46.082,120.483,-29.419
0.752,0.186,-0.033,-13.184,114.746,5.066
0.791,0.263,-0.056,-24.719,114.319,7.568
0.788,0.300,-0.141,8.240,115.906,-29.114
0.863,0.416,-0.465,15.625,113.464,-44.312
0.938,0.440,-0.511,-51.880,93.140,-24.963
1.119,0.413,-0.266,-74.341,79.590,-15.198
1.183,0.425,-0.202,-61.951,69.214,-21.057
1.238,0.430,-0.235,1.892,56.824,-58.838
1.292,0.326,-0.336,14.526,54.321,-70.984
1.276,0.195,-0.343,1.770,55.298,-71.716
1.224,-0.045,-0.328,-6.653,55.237,-61.279
1.196,-0.053,-0.316,-7.874,49.500,-25.879
1.198,0.098,-0.317,-6.042,42.725,-7.019
1.222,0.161,-0.301,-6.409,36.621,8.423
1.234,0.191,-0.272,8.484,32.959,13.306
1.185,0.208,-0.226,20.020,34.607,8.850
1.141,0.195,-0.210,23.926,37.109,9.766
1.043,0.162,-0.229,20.203,36.987,15.320
0.997,0.155,-0.262,16.785,35.278,20.996
0.961,0.160,-0.286,19.104,23.499,28.687
0.945,0.226,-0.246,25.513,15.259,29.236
0.949,0.285,-0.219,37.537,6.531,15.930
0.917,0.327,-0.198,36.377,6.042,5.859
0.890,0.308,-0.209,21.118,4.517,-3.174
0.861,0.233,-0.187,8.118,1.221,0.305
0.876,0.195,-0.147,-2.991,-3.418,5.676
0.896,0.170,-0.113,-4.272,-11.536,7.080
0.930,0.116,-0.051,0.366,-14.404,3.723
0.962,0.082,-0.003,8.362,-18.311,0.488
1.014,0.071,0.068,10.620,-17.395,0.610
1.023,0.093,0.080,9.827,-15.015,1.404
1.030,0.122,0.084,0.061,-9.460,5.981
1.035,0.176,0.068,-2.441,-6.775,5.554
1.022,0.188,0.039,0.610,-2.136,-2.197
0.986,0.177,-0.028,0.854,-1.099,-4.700
0.975,0.160,-0.041,-1.953,-2.319,-5.310
0.965,0.131,-0.037,-2.258,-3.784,-4.272
0.965,0.129,-0.031,0.244,-5.798,-3.845
0.973,0.133,-0.021,4.822,-9.155,-3.052
1.003,0.140,0.015,2.991,-8.911,-1.892
1.013,0.137,0.027,-2.014,-6.226,-1.587
1.012,0.125,0.048,-3.235,-5.005,-1.282
1.016,0.129,0.057,-0.732,-4.333,-0.427
1.026,0.147,0.064,0.549,-3.601,-0.854
1.024,0.143,0.057,0.488,-1.892,-1.465
1.013,0.136,0.036,-0.732,2.014,-2.014
0.987,0.129,-0.012,-2.258,2.930,-1.160
0.976,0.128,-0.026,-3.906,2.380,0.427
0.966,0.133,-0.042,-2.014,1.099,0.183
0.964,0.141,-0.046,0.183,-0.305,-0.305
0.964,0.143,-0.041,0.427,-2.686,-1.099
0.968,0.125,-0.017,-0.183,-3.540,-1.099
0.973,0.115,-0.003,-0.916,-5.310,0.732
0.995,0.114,0.043,-0.671,-5.798,2.197
1.006,0.123,0.058,2.991,-5.371,2.686

1.139,0.726,-0.924,5.981,-5.066,39.551
1.124,0.820,-1.121,32.227,-37.109,28.870
1.297,0.929,-1.333,33.020,-61.218,33.020
1.483,0.937,-1.333,18.250,-86.548,46.509
1.867,0.884,-1.124,-33.630,-127.197,83.313
1.946,0.897,-0.977,-44.861,-137.024,90.637
1.879,0.970,-0.851,-15.564,-137.695,56.030
1.318,1.147,-0.735,9.155,-135.803,15.930
0.916,1.174,-0.747,-0.977,-144.958,-63.599
0.029,0.949,-0.660,-67.383,-154.480,-81.482
-0.491,0.561,-0.336,-149.719,-169.495,-85.999
-1.409,-0.204,0.644,-156.616,-236.023,-79.346
-1.687,-0.241,1.061,-70.129,-275.818,-86.243
-1.958,-0.115,1.474,32.898,-306.396,-141.479
-2.288,-0.125,2.647,-6.897,-320.862,-156.494
-1.656,-0.517,3.441,-141.418,-380.066,-74.341
1.743,-1.521,4.000,-145.264,-359.314,-0.244
2.902,-1.582,3.843,-43.213,-38.940,23.132
0.488,-0.572,0.771,-15.747,151.184,-16.663
-0.973,0.026,-0.697,-39.490,214.111,-6.409
-1.269,0.511,-1.056,-107.422,28.992,117.371
-0.064,1.124,0.197,-63.843,-47.363,97.900
0.280,1.043,0.592,25.269,-42.297,-42.053
0.447,0.084,0.824,12.390,-26.917,-62.927
0.585,-0.239,1.049,-26.001,-27.954,-2.380
0.792,0.070,1.361,-31.860,-21.423,30.151
0.717,0.326,1.239,-37.781,-3.174,44.006
0.542,0.468,0.982,-33.203,34.485,23.987
0.271,0.584,0.546,-21.484,35.706,11.780
0.279,0.645,0.510,-2.747,10.803,0.916
0.479,0.648,0.750,0.122,-1.526,-3.906
0.579,0.575,0.895,0.244,-6.470,-10.071
0.640,0.500,0.980,1.892,4.517,-23.254
0.684,0.446,0.993,4.883,13.855,-27.039
0.696,0.453,0.959,15.442,28.992,-31.738
0.705,0.427,0.887,20.996,33.936,-33.875
0.701,0.409,0.858,28.076,40.955,-33.447
0.665,0.381,0.808,30.823,43.701,-32.715
0.619,0.351,0.795,34.729,46.021,-33.997
0.570,0.312,0.785,51.758,47.241,-43.518
0.511,0.233,0.731,64.209,45.898,-50.476
0.504,0.200,0.695,77.942,38.208,-55.908
0.573,0.167,0.737,74.341,30.762,-47.302
0.638,0.154,0.815,67.566,23.926,-34.302
0.695,0.122,0.902,64.636,22.766,-19.043
0.710,0.012,1.054,70.923,30.457,-18.738
0.658,-0.030,1.073,94.055,54.749,-26.184
0.552,-0.108,0.944,104.675,66.345,-30.884
0.531,-0.177,0.810,108.398,75.684,-32.471
0.523,-0.252,0.695,90.515,76.965,-9.644
0.525,-0.292,0.732,77.942,67.810,15.076
0.546,-0.225,0.829,67.810,49.927,59.814
0.606,-0.031,0.934,71.228,48.401,66.406
0.643,0.032,0.905,81.787,64.880,48.279
0.672,0.035,0.758,78.735,78.308,36.255
0.652,-0.010,0.687,66.101,88.867,31.616
0.628,-0.069,0.649,25.818,94.116,51.941
0.581,-0.092,0.636,14.404,92.590,66.956
0.566,-0.027,0.644,22.888,87.402,80.261
0.633,0.167,0.598,35.706,86.487,75.989
0.695,0.259,0.543,47.607,88.562,65.186
0.734,0.330,0.485,42.419,98.816,43.701
0.701,0.362,0.440,21.912,104.736,37.781
0.663,0.340,0.426,-17.578,111.084,30.151
0.648,0.284,0.344,-22.583,109.741,22.644
0.694,0.255,0.259,-16.235,105.469,13.855
0.748,0.204,0.204,17.151,94.299,-8.545
0.817,0.110,0.139,37.842,91.309,-20.264
0.815,0.095,0.126,35.583,86.121,-13.855
0.843,0.091,0.111,4.150,82.458,7.568
0.869,0.108,0.077,-28.564,77.271,29.968
0.900,0.135,0.030,-38.147,57.800,45.349
1.019,0.215,-0.064,-10.681,45.837,38.696
1.088,0.306,-0.085,71.472,32.227,8.545
1.162,0.530,-0.163,95.886,36.926,-8.850
1.135,0.595,-0.237,64.453,51.697,-24.109
1.104,0.584,-0.326,15.808,56.213,-15.320
1.115,0.542,-0.336,-28.442,58.533,-6.226
1.116,0.496,-0.343,-29.907,55.969,-22.217
1.064,0.493,-0.401,3.784,49.133,-35.400
1.069,0.540,-0.414,44.983,27.344,-41.687
1.179,0.561,-0.280,36.377,22.522,-41.992
1.208,0.502,-0.199,15.137,26.062,-44.617
1.152,0.288,-0.145,-28.320,40.405,-48.889
1.109,0.173,-0.140,-36.072,41.504,-47.302
1.093,0.077,-0.121,-22.034,27.039,-36.255
1.140,-0.024,-0.035,-11.841,18.250,-28.748
1.165,-0.054,0.015,-2.747,15.015,-17.090
1.158,-0.109,0.083,-4.395,19.470,-12.146
1.149,-0.127,0.108,-7.629,24.231,-6.348
1.097,-0.120,0.127,-3.784,31.006,2.075
1.062,-0.093,0.114,5.127,31.311,3.540
1.037,-0.058,0.096,23.376,24.902,7.019
1.010,0.026,0.071,28.198,22.400,9.399
0.989,0.072,0.051,22.461,23.804,13.489
0.937,0.141,-0.001,13.855,25.391,15.320
0.918,0.159,-0.006,5.371,26.123,16.663
0.909,0.167,-0.002,-3.601,24.414,14.709
0.899,0.172,-0.016,-3.845,21.851,11.719
0.897,0.170,-0.027,-0.732,13.672,6.104
0.901,0.152,-0.037,1.343,9.277,4.333
0.913,0.142,-0.036,2.380,5.371,3.540
0.928,0.132,-0.027,-5.981,0.916,7.568
0.970,0.107,0.014,-12.634,0.244,10.742
0.986,0.106,0.034,-11.902,0.427,8.850
1.004,0.130,0.051,-5.798,0.488,4.639
1.011,0.144,0.049,-1.587,0.549,1.404
1.012,0.151,0.038,-3.052,2.625,-0.671
0.994,0.154,-0.005,-5.371,3.357,-0.854
0.988,0.153,-0.024,-13.977,1.953,2.991
0.999,0.132,-0.030,-17.578,0.916,4.822
1.003,0.114,-0.025,-10.742,-0.244,-0.427
1.008,0.084,-0.011,-3.662,-0.854,-4.272
1.014,0.087,-0.003,1.648,-1.099,-6.165
1.016,0.091,0.001,-3.174,0.732,-2.625
1.002,0.079,-0.009,-10.010,2.197,1.709
0.990,0.076,-0.015,-13.550,2.380,8.362
0.976,0.109,-0.013,-8.484,1.221,8.606
0.976,0.130,-0.006,2.991,-0.732,5.127

1.321,0.755,-0.949,-27.466,-67.566,113.037
1.295,0.913,-1.097,-66.956,-96.863,146.973
1.266,1.157,-1.208,-92.712,-110.535,150.452
1.302,1.211,-1.177,-122.253,-122.864,121.826
1.360,1.105,-1.056,-123.291,-122.986,98.022
1.333,0.989,-1.013,-119.019,-123.779,76.050
1.264,0.860,-0.994,-103.027,-138.611,42.419
1.023,0.607,-0.922,-93.933,-155.518,32.837
0.888,0.572,-0.851,-74.097,-196.716,27.954
0.678,0.579,-0.739,-67.749,-211.426,23.926
0.523,0.562,-0.748,-50.720,-220.032,-5.554
-0.137,0.408,-0.629,-50.964,-224.121,-23.865
-0.612,0.216,-0.381,-58.228,-235.840,-31.860
-1.153,0.007,-0.008,-49.255,-283.142,-14.954
-2.341,-0.215,1.136,-25.269,-313.416,-9.399
-2.771,-0.317,1.947,-2.747,-404.053,5.981
-2.042,-0.099,3.798,-16.479,-463.196,51.819
-0.283,0.477,4.000,-48.767,-488.586,200.867
3.550,1.333,3.786,-71.655,-327.209,186.279
2.364,0.622,2.411,-107.300,-36.316,51.575
-1.884,-0.642,-1.298,-195.740,230.774,-43.640
-1.702,-0.103,-1.182,-194.946,78.918,79.651
-0.718,0.592,-0.141,-32.959,-119.324,89.294
0.358,0.438,1.096,29.785,-89.600,6.653
0.522,0.021,1.159,25.879,-31.433,-16.052
0.603,0.089,1.270,-3.845,-21.423,22.888
0.473,0.347,1.218,-29.175,-6.592,49.866
0.284,0.512,1.011,-19.226,34.424,28.687
0.071,0.502,0.599,8.667,44.800,4.333
0.046,0.497,0.574,47.607,40.771,-15.442
0.150,0.608,0.752,50.659,33.447,-12.756
0.200,0.630,0.844,47.424,34.363,-15.320
0.165,0.651,0.905,46.326,41.626,-19.775
0.156,0.649,0.888,46.997,48.950,-26.062
0.156,0.648,0.845,60.669,64.270,-46.814
0.112,0.705,0.694,68.970,68.848,-56.030
0.114,0.750,0.636,68.115,60.181,-56.824
0.238,0.762,0.752,64.697,51.636,-54.199
0.294,0.706,0.885,68.848,48.767,-58.960
0.318,0.617,1.005,102.539,64.514,-93.201
0.343,0.455,1.040,121.338,78.125,-110.229
0.392,0.441,0.948,132.751,90.393,-110.413
0.541,0.447,0.904,118.347,84.900,-90.088
0.587,0.395,0.974,99.182,79.834,-69.153
0.582,0.296,1.050,87.036,88.318,-62.256
0.539,0.122,1.076,98.328,98.877,-71.533
0.545,0.097,1.030,125.916,115.540,-88.135
0.638,0.035,0.861,127.319,119.995,-90.393
0.649,-0.048,0.783,115.479,122.803,-84.229
0.615,-0.155,0.750,85.937,121.033,-55.298
0.562,-0.239,0.740,87.280,117.310,-39.856
0.601,-0.156,0.714,113.770,103.638,-19.470
0.787,0.109,0.660,119.141,99.060,-14.771
0.847,0.191,0.650,88.318,105.103,-9.033
0.846,0.104,0.654,67.688,111.267,-8.484
0.799,0.021,0.676,62.805,116.455,-15.076
0.752,-0.030,0.689,93.323,119.934,-36.804
0.776,0.006,0.534,103.760,119.019,-38.391
0.813,0.018,0.410,72.021,112.976,-13.184
0.847,-0.073,0.383,45.105,107.178,7.935
0.847,-0.081,0.441,30.518,101.929,24.719
0.834,-0.022,0.469,42.542,97.412,28.137
0.849,0.165,0.336,50.537,97.595,20.630
0.873,0.216,0.241,32.471,97.290,18.738
0.921,0.181,0.179,12.085,96.375,24.414
0.924,0.125,0.211,-7.874,97.046,30.457
0.913,0.068,0.240,-15.320,101.196,26.245
0.840,0.050,0.160,5.554,98.938,11.414
0.851,0.069,0.043,32.593,84.045,-6.348
0.964,0.038,-0.147,23.193,77.454,-1.465
0.993,0.034,-0.127,-16.846,74.219,23.926
0.980,0.087,-0.031,-38.452,76.355,36.743
0.951,0.093,-0.052,-51.331,78.125,42.847
0.917,0.093,-0.141,-17.883,68.237,19.104
0.892,0.139,-0.326,15.137,54.504,-0.916
0.918,0.173,-0.333,35.767,28.870,-11.230
1.049,0.234,-0.252,19.531,23.682,-0.977
1.096,0.260,-0.199,-3.601,23.621,11.230
1.117,0.265,-0.178,-34.424,36.255,14.282
1.082,0.167,-0.248,-27.710,40.894,0.977
1.047,0.130,-0.314,19.958,33.569,-28.870
1.017,0.173,-0.383,34.729,23.193,-31.250
1.035,0.208,-0.354,18.250,5.676,-9.583
1.097,0.202,-0.233,0.244,3.845,2.563
1.118,0.174,-0.185,-11.902,6.958,7.935
1.109,0.140,-0.170,-10.254,17.212,-2.014
1.046,0.072,-0.160,-2.930,16.357,-7.324
1.036,0.053,-0.129,7.019,4.211,-3.723
1.053,0.018,-0.065,9.216,-1.099,0.427
1.054,0.001,-0.042,12.939,-4.700,2.319
1.053,-0.001,-0.019,19.836,-6.042,2.808
1.038,0.025,0.017,17.395,-4.333,4.089
1.025,0.050,0.029,5.127,-1.099,9.705
1.020,0.091,0.048,-0.854,0.610,11.963
1.013,0.098,0.042,1.892,2.686,6.531
0.983,0.099,0.003,5.981,2.625,2.441
0.970,0.085,-0.007,6.653,2.502,0.549
0.956,0.064,-0.016,3.906,1.404,1.099
0.938,0.051,-0.022,2.136,-0.549,3.540
0.946,0.062,-0.013,-1.099,-3.967,6.775
0.968,0.081,0.004,1.526,-4.395,3.845
0.973,0.090,0.006,6.226,-5.005,-0.122
0.977,0.097,0.012,8.850,-6.775,-2.930
0.998,0.093,0.057,6.165,-7.202,-1.953
1.007,0.089,0.071,0.366,-4.700,-1.282
1.004,0.068,0.080,-2.380,-3.113,-1.648
1.005,0.052,0.089,-4.761,-2.014,-1.282
1.016,0.036,0.097,-4.272,-1.770,-1.404
1.017,0.033,0.094,-3.235,-1.221,-2.197
1.014,0.033,0.084,-0.977,0.427,-4.333
1.000,0.043,0.051,-0.977,0.671,-4.578
0.998,0.050,0.041,-5.188,0.793,-2.686
0.998,0.044,0.038,-8.850,1.648,-1.221
0.998,0.030,0.040,-10.620,2.563,-0.671
0.996,0.019,0.040,-5.066,1.831,-2.991
1.004,0.016,0.057,-1.038,0.610,-3.723
1.011,0.024,0.064,3.235,0.366,-3.296
1.016,0.046,0.059,2.563,0.549,-2.380
1.016,0.051,0.055,-2.625,1.526,0.122

1.325,0.724,-0.644,-199.951,-125.732,206.543
1.366,0.771,-0.636,-184.204,-148.499,203.918
1.281,0.888,-0.735,-149.475,-158.997,187.744
1.208,0.932,-0.790,-119.141,-199.646,169.189
1.210,0.872,-0.683,-123.718,-228.699,170.654
1.299,0.851,-0.549,-121.216,-255.432,173.279
1.399,0.906,-0.437,-81.299,-272.217,163.696
1.444,1.192,-0.322,-61.340,-263.428,144.470
1.377,1.351,-0.253,-52.063,-216.797,87.585
0.967,1.429,-0.202,-46.509,-184.326,39.185
0.711,1.228,-0.207,-47.363,-138.428,-53.101
0.273,0.275,-0.204,-58.533,-126.953,-66.040
0.002,-0.188,-0.240,-58.228,-119.568,-57.312
-0.942,-0.475,-0.335,-0.854,-141.357,-50.964
-1.534,-0.520,-0.032,-0.122,-179.993,-27.710
-2.023,-0.488,0.617,-18.616,-274.170,47.791
-2.167,0.036,2.178,-9.583,-313.538,65.247
-1.708,0.445,2.939,-27.710,-356.140,106.567
0.123,1.325,4.000,-44.250,-346.008,133.911
1.390,1.402,3.970,-121.582,-148.743,70.923
1.082,-0.039,1.539,-180.908,27.405,-23.010
-0.265,-0.718,0.075,-215.576,143.738,-70.435
-1.034,-0.719,-0.655,-165.100,51.331,50.842
-0.519,0.508,-0.026,-85.632,-28.931,85.815
-0.124,0.789,0.502,38.208,-60.974,22.156
0.465,0.493,1.101,41.992,-46.082,4.211
0.570,0.436,1.174,-5.615,-1.038,21.423
0.389,0.568,0.989,-32.410,19.470,34.485
0.231,0.595,0.791,-43.335,37.292,37.109
0.035,0.654,0.552,4.761,62.012,5.615
-0.203,0.829,0.249,35.156,56.641,-11.108
-0.148,0.867,0.296,47.302,21.851,-15.320
0.077,0.943,0.636,41.077,9.705,-12.024
0.175,0.956,0.787,35.583,7.141,-12.024
0.237,0.923,0.875,45.227,30.396,-35.706
0.234,0.797,0.885,65.002,51.514,-59.937
0.173,0.731,0.830,109.009,85.022,-106.384
0.100,0.675,0.690,117.493,88.074,-113.770
0.106,0.690,0.671,116.638,83.923,-111.206
0.115,0.726,0.673,106.445,72.083,-99.365
0.193,0.704,0.734,99.731,67.322,-92.896
0.258,0.626,0.783,107.422,72.632,-96.069
0.371,0.539,0.837,124.695,83.679,-108.093
0.412,0.559,0.841,146.790,104.858,-124.878
0.531,0.627,0.866,137.756,109.924,-117.859
0.589,0.615,0.907,113.586,113.342,-100.159
0.609,0.554,0.961,52.246,126.465,-63.843
0.563,0.381,1.043,35.522,135.742,-55.847
0.561,0.288,1.054,48.950,148.804,-62.622
0.649,0.103,0.947,73.853,152.222,-78.369
0.684,0.038,0.850,98.083,153.198,-93.445
0.690,0.010,0.776,104.248,139.221,-79.712
0.661,0.077,0.748,84.412,128.723,-51.392
0.651,0.133,0.752,47.363,112.183,-7.629
0.719,0.220,0.689,48.584,106.445,-8.606
0.784,0.232,0.625,70.923,99.915,-31.616
0.847,0.145,0.485,80.750,99.487,-43.396
0.808,0.094,0.432,86.365,97.656,-48.706
0.764,0.068,0.425,81.665,85.022,-28.931
0.760,0.182,0.479,75.684,78.247,-12.451
0.823,0.298,0.512,64.331,79.956,-3.479
0.969,0.394,0.485,62.134,90.454,-19.775
0.992,0.316,0.411,63.354,101.196,-42.786
0.970,0.181,0.328,75.195,107.666,-69.519
0.859,-0.046,0.246,86.609,102.295,-68.665
0.811,-0.075,0.231,97.168,88.806,-49.438
0.788,0.005,0.175,87.097,83.130,-33.691
0.866,0.087,0.137,69.824,78.369,-17.700
0.969,0.140,0.088,35.522,83.984,-7.629
1.012,0.027,-0.008,26.062,92.102,-12.695
0.948,-0.046,-0.041,34.119,93.323,-17.700
0.808,-0.023,-0.109,46.570,85.083,-17.456
0.786,0.061,-0.161,44.800,65.613,-7.202
0.854,0.198,-0.152,27.588,59.875,0.244
0.927,0.228,-0.111,8.362,60.242,3.784
0.971,0.202,-0.089,-17.761,73.486,-6.836
0.916,0.033,-0.164,-16.174,74.036,-17.029
0.868,-0.029,-0.211,5.981,54.932,-25.879
0.841,-0.056,-0.243,12.756,44.189,-22.644
0.866,-0.026,-0.253,-9.644,32.837,-1.404
0.977,-0.029,-0.148,-36.621,32.410,14.343
1.026,-0.063,-0.091,-56.702,34.790,24.841
1.043,-0.094,-0.081,-43.884,36.804,16.418
1.027,-0.124,-0.157,-21.606,31.860,7.935
1.036,-0.120,-0.196,7.507,10.803,19.775
1.111,-0.046,-0.180,0.000,-1.099,45.166
1.175,0.050,-0.147,-54.626,-7.202,108.765
1.297,0.246,-0.113,-67.383,3.174,111.389
1.266,0.297,-0.176,-52.673,19.897,84.778
1.171,0.323,-0.292,13.123,40.649,12.207
0.994,0.374,-0.482,33.325,37.048,-2.563
0.961,0.406,-0.516,35.461,20.508,-1.038
0.940,0.420,-0.495,28.381,14.587,1.282
0.939,0.384,-0.447,22.766,9.094,1.160
0.944,0.329,-0.377,23.437,-2.441,-5.798
0.962,0.183,-0.206,28.931,-7.141,-11.353
0.968,0.118,-0.130,36.987,-13.428,-15.503
0.997,0.054,-0.002,32.898,-13.855,-11.108
1.010,0.043,0.044,15.686,-9.827,1.282
1.025,0.052,0.095,12.634,-8.240,3.479
1.027,0.081,0.104,14.648,-7.019,1.892
1.026,0.113,0.100,20.691,-3.662,-7.141
1.015,0.147,0.068,20.020,-1.282,-10.986
1.008,0.152,0.044,9.705,4.456,-13.794
0.990,0.157,-0.001,2.747,6.592,-13.245
0.988,0.148,-0.016,-1.892,7.324,-12.939
0.992,0.130,-0.026,0.671,6.165,-16.541
0.996,0.082,-0.033,3.662,5.615,-18.799
0.997,0.059,-0.029,3.906,3.479,-16.907
1.010,0.041,-0.006,0.183,2.502,-12.329
1.016,0.045,0.009,-4.333,2.625,-6.165
1.022,0.054,0.025,-2.808,2.991,-5.859
1.023,0.053,0.024,-0.671,3.296,-5.981
1.022,0.046,0.018,2.563,3.845,-6.897
1.012,0.037,0.002,2.380,4.517,-6.592
1.005,0.039,-0.005,-0.793,6.287,-5.127
0.991,0.040,-0.022,-1.221,6.531,-4.883
0.985,0.042,-0.033,-0.671,6.226,-5.005
0.981,0.056,-0.043,-0.061,5.188,-5.005

1.296,0.952,-0.697,-148.560,-60.364,153.870
1.207,0.958,-0.901,-154.358,-42.664,106.079
1.142,0.776,-1.242,-161.560,-51.636,100.403
1.187,0.683,-1.340,-154.541,-97.473,118.408
1.275,0.698,-1.400,-132.874,-129.517,127.808
1.282,0.747,-1.393,-107.666,-163.879,134.277
1.281,0.791,-1.409,-70.374,-227.295,141.357
1.355,0.831,-1.456,-63.782,-254.944,143.982
1.348,0.838,-1.403,-44.678,-288.452,132.507
0.876,0.988,-1.167,-21.179,-288.757,107.422
0.472,1.085,-1.056,13.672,-271.057,12.756
-0.523,0.820,-0.661,5.188,-261.230,-47.180
-1.157,0.352,-0.217,-26.794,-258.850,-92.224
-1.794,-0.303,0.338,-111.206,-310.181,-35.645
-2.451,-1.091,1.412,-96.252,-357.849,39.185
-2.693,-0.976,2.031,17.578,-419.434,116.089
-2.753,0.643,3.608,42.664,-453.430,155.945
-1.676,1.998,4.000,-75.195,-502.747,263.489
2.379,2.665,3.919,-181.335,-394.043,220.520
2.348,1.072,2.878,-257.141,-148.682,51.514
0.398,-0.779,0.887,-278.503,226.868,-141.663
-1.900,-1.191,-1.750,-221.924,144.165,-32.288
-1.295,-0.227,-1.193,-18.860,-120.850,95.642
0.067,0.834,0.906,39.856,-148.315,68.298
0.539,0.821,1.474,1.221,-75.500,32.837
0.567,0.549,1.491,-24.170,-18.188,18.860
0.286,0.545,1.170,-30.273,27.527,5.920
0.088,0.599,0.846,-15.869,59.570,-4.517
-0.067,0.722,0.402,1.526,63.721,-10.986
-0.173,0.817,0.285,34.912,58.044,-21.606
-0.208,1.018,0.345,31.189,42.847,-13.855
-0.138,1.079,0.477,19.836,28.748,-5.371
-0.057,1.085,0.607,12.634,25.696,-15.747
0.066,0.961,0.768,23.804,37.903,-35.400
0.065,0.892,0.786,67.566,65.430,-76.782
0.110,0.828,0.797,92.285,72.388,-93.262
0.142,0.816,0.812,113.892,77.881,-107.788
0.156,0.817,0.820,134.399,84.534,-122.620
0.185,0.747,0.858,130.310,83.801,-120.972
0.201,0.628,0.903,118.530,85.876,-122.131
0.192,0.353,0.993,118.164,90.149,-124.207
0.212,0.351,1.005,132.629,88.562,-104.980
0.365,0.544,1.077,145.569,83.557,-90.637
0.423,0.626,1.156,161.377,83.008,-86.121
0.442,0.660,1.221,177.673,99.792,-101.990
0.388,0.620,1.142,163.757,113.525,-106.934
0.390,0.546,1.003,89.050,130.493,-84.534
0.539,0.365,0.743,50.903,128.906,-61.035
0.595,0.331,0.708,29.968,122.192,-37.537
0.592,0.361,0.722,47.424,106.140,-12.390
0.503,0.587,0.797,70.679,99.121,-12.207
0.507,0.686,0.830,106.934,100.586,-40.833
0.600,0.632,0.743,118.042,113.220,-69.214
0.667,0.465,0.601,125.854,125.427,-97.534
0.714,0.275,0.487,121.460,127.563,-107.422
0.700,0.054,0.455,110.291,120.972,-90.210
0.651,0.068,0.507,98.877,106.018,-51.880
0.611,0.221,0.581,101.379,100.220,-43.335
0.661,0.249,0.558,106.445,97.473,-46.631
0.764,0.212,0.458,109.375,103.516,-67.322
0.900,0.018,0.239,95.032,109.497,-66.345
0.875,-0.075,0.231,35.461,113.220,-30.334
0.775,-0.195,0.381,11.902,109.680,-9.705
0.747,-0.214,0.440,33.264,98.267,-1.343
0.749,-0.083,0.347,68.359,91.003,-9.277
0.793,0.028,0.282,96.252,82.458,-15.442
0.862,0.095,0.265,104.553,72.693,-26.123
0.935,0.065,0.342,94.727,77.515,-34.424
0.916,0.018,0.327,67.383,99.854,-45.044
0.837,-0.099,0.235,57.129,107.666,-45.288
0.808,-0.142,0.182,56.641,109.558,-45.593
0.795,-0.163,0.138,78.857,98.328,-46.875
0.856,-0.169,0.060,89.539,92.102,-44.678
0.896,-0.177,0.039,97.168,87.036,-37.781
0.910,-0.150,-0.023,89.600,87.158,-29.541
0.908,-0.139,-0.031,47.363,83.679,10.010
0.969,-0.115,-0.072,34.912,80.933,25.452
0.998,-0.058,-0.133,39.490,77.087,28.931
1.014,0.052,-0.208,63.416,69.763,22.400
1.011,0.226,-0.323,65.979,69.031,16.785
0.995,0.244,-0.354,54.138,65.674,7.996
1.012,0.255,-0.365,42.908,60.364,8.850
1.043,0.247,-0.393,36.194,53.711,6.714
1.070,0.215,-0.442,38.513,40.833,-8.301
1.113,0.121,-0.505,35.034,34.729,-9.827
1.147,0.072,-0.484,15.503,19.409,0.610
1.198,0.028,-0.387,3.540,11.597,8.118
1.204,0.011,-0.328,-8.240,5.676,16.541
1.189,-0.014,-0.289,-15.991,3.235,25.269
1.114,-0.111,-0.246,-10.010,3.235,22.522
1.086,-0.150,-0.223,4.578,-4.211,23.987
1.082,-0.085,-0.134,7.751,-10.620,30.212
1.092,-0.014,-0.078,1.465,-14.771,41.931
1.073,0.086,-0.033,-6.287,-9.644,42.786
1.036,0.106,-0.041,-13.855,-2.136,39.795
0.986,0.117,-0.057,-19.592,8.606,28.137
0.918,0.111,-0.086,-17.212,8.606,22.217
0.906,0.089,-0.100,-9.827,4.272,14.160
0.892,0.030,-0.127,-7.019,1.892,12.207
0.885,0.007,-0.132,-8.362,-4.944,13.550
0.891,-0.002,-0.095,-10.986,-9.460,16.541
0.910,0.012,-0.056,-11.292,-13.855,18.555
0.935,0.028,-0.021,-5.188,-17.273,15.381
0.973,0.059,0.008,-1.343,-15.869,11.414
0.979,0.066,0.012,5.432,-12.390,2.075
0.993,0.076,0.016,5.188,-11.536,-0.427
1.003,0.075,0.019,1.099,-10.742,-1.038
1.010,0.064,0.021,-10.071,-7.935,-0.854
1.006,0.026,0.002,-13.550,-6.287,-0.427
1.000,0.005,-0.003,-12.268,-6.042,-0.549
1.010,-0.021,0.005,-6.470,-7.507,-1.709
1.021,-0.017,0.004,4.272,-9.521,-3.479
1.031,-0.007,0.006,5.127,-8.911,-3.784
1.029,-0.007,0.004,4.089,-7.629,-3.601
1.022,-0.002,-0.001,-0.244,-4.456,-1.648
1.007,0.027,-0.009,-2.625,-3.113,-0.916
1.000,0.037,-0.009,-3.601,-2.441,-2.625
0.992,0.034,-0.004,-1.221,-2.930,-4.517
0.992,0.024,0.001,4.395,-5.249,-6.104

1.243,0.831,-0.621,-156.982,-45.654,143.860
1.219,0.848,-0.735,-197.998,-51.147,143.433
1.164,0.839,-0.955,-212.585,-57.983,144.226
1.151,0.841,-1.028,-245.422,-89.416,161.133
1.293,0.780,-1.079,-255.615,-109.985,167.297
1.408,0.710,-1.075,-251.221,-125.732,161.987
1.503,0.628,-1.070,-208.984,-125.671,131.104
1.506,0.425,-1.070,-193.909,-116.272,124.451
1.371,0.341,-1.075,-169.922,-109.802,130.798
0.941,0.168,-1.016,-145.508,-116.760,129.822
0.703,0.069,-0.960,-77.332,-148.010,114.319
0.231,-0.170,-0.782,-57.983,-170.471,115.662
-0.054,-0.337,-0.632,-50.659,-191.589,132.996
-0.481,-0.541,-0.412,-21.118,-219.299,190.552
-1.784,-0.785,0.361,20.386,-228.882,216.492
-2.518,-0.659,1.008,123.230,-281.128,267.700
-3.222,0.561,2.918,145.264,-336.731,290.405
-2.635,1.633,3.792,123.047,-456.299,308.533
1.090,3.659,4.000,98.022,-459.045,290.527
3.189,3.177,3.899,73.303,-376.160,197.083
3.349,1.409,2.967,-56.274,81.421,-150.269
-0.804,-1.574,-0.526,-136.597,235.840,-154.114
-1.789,-1.071,-1.323,-134.583,48.462,130.005
-0.940,1.174,-0.358,-37.659,-61.768,132.996
-0.421,1.435,0.250,88.501,-83.801,-50.537
0.394,0.739,0.964,65.247,-71.594,-64.697
0.657,0.586,1.172,23.682,-59.082,-34.790
0.678,0.644,1.246,-32.715,-7.996,14.832
0.266,0.781,0.901,-37.231,19.836,8.545
0.061,0.744,0.622,-1.831,51.880,-38.147
-0.155,0.668,0.321,20.020,54.443,-55.847
-0.157,0.741,0.321,30.945,47.119,-58.044
-0.068,0.814,0.404,20.142,15.991,-36.316
0.161,0.816,0.641,17.822,11.536,-36.133
0.202,0.800,0.710,36.621,34.424,-62.073
0.185,0.840,0.745,57.007,50.232,-83.862
0.181,0.889,0.729,98.206,67.383,-120.605
0.223,0.919,0.713,105.103,67.627,-127.014
0.258,0.883,0.718,103.516,65.857,-127.930
0.297,0.815,0.724,93.933,66.345,-127.747
0.312,0.645,0.727,92.102,69.580,-128.662
0.309,0.590,0.728,98.389,71.350,-131.470
0.388,0.588,0.754,104.980,68.970,-128.418
0.461,0.604,0.789,112.000,66.833,-124.146
0.535,0.595,0.833,128.235,70.984,-123.840
0.597,0.431,0.959,140.442,79.102,-133.972
0.577,0.300,0.984,177.368,104.553,-172.913
0.517,0.168,0.895,188.660,112.000,-179.138
0.556,0.163,0.845,182.251,108.765,-159.302
0.629,0.165,0.824,133.728,92.896,-82.703
0.733,0.161,0.871,116.028,90.698,-58.777
0.735,0.179,0.908,121.155,105.957,-61.584
0.663,0.246,0.911,134.094,118.347,-78.674
0.654,0.221,0.824,143.127,126.953,-95.947
0.665,0.138,0.723,129.639,123.413,-93.811
0.683,-0.063,0.630,110.168,115.784,-69.885
0.689,-0.120,0.608,82.703,105.835,-12.878
0.709,-0.047,0.554,86.914,103.394,2.258
0.730,0.070,0.525,109.253,96.191,-3.357
0.855,0.216,0.429,108.826,94.360,-11.292
0.892,0.168,0.362,95.642,96.375,-15.747
0.886,0.055,0.327,49.866,102.356,-2.319
0.828,-0.152,0.373,34.485,103.333,11.597
0.815,-0.156,0.354,39.978,100.647,29.724
0.859,0.014,0.282,52.063,93.628,34.973
0.897,0.135,0.262,60.303,85.327,39.185
0.945,0.242,0.238,48.218,77.881,40.833
0.991,0.295,0.260,30.212,84.717,35.339
0.959,0.244,0.286,12.512,109.314,6.958
0.815,0.120,0.211,20.508,116.028,-11.353
0.783,0.097,0.134,33.203,115.540,-24.963
0.797,0.092,0.060,37.415,105.225,-24.170
0.858,0.069,-0.098,21.851,104.858,-13.062
0.879,0.031,-0.158,-24.414,113.770,15.320
0.834,-0.053,-0.173,-40.283,118.225,23.987
0.787,-0.065,-0.221,-44.800,118.469,27.100
0.760,-0.059,-0.273,-22.583,95.154,23.499
0.797,0.061,-0.344,-2.136,79.712,17.822
0.840,0.141,-0.365,23.254,58.350,1.404
0.942,0.190,-0.285,21.118,52.795,-4.822
0.956,0.185,-0.261,-1.648,54.871,-7.019
0.934,0.106,-0.305,-7.080,56.702,-12.390
0.924,0.062,-0.350,-0.977,56.030,-24.475
0.929,0.061,-0.384,27.954,42.969,-45.349
1.027,0.166,-0.360,36.621,31.311,-45.166
1.121,0.234,-0.314,32.837,16.174,-35.461
1.269,0.314,-0.278,23.987,21.973,-34.790
1.281,0.283,-0.323,6.165,49.500,-44.250
1.161,0.197,-0.517,4.028,61.218,-48.279
1.079,0.178,-0.625,5.859,66.589,-48.096
1.016,0.159,-0.701,13.184,53.467,-34.180
0.964,0.111,-0.697,16.418,37.903,-22.278
0.971,0.100,-0.632,19.409,7.568,0.671
0.992,0.123,-0.460,19.226,-1.282,6.775
1.000,0.129,-0.376,16.479,-5.920,9.583
1.006,0.119,-0.301,5.737,-8.728,11.963
1.008,0.060,-0.190,1.892,-9.644,11.169
1.009,0.014,-0.153,-1.709,-11.963,9.094
1.009,-0.088,-0.107,-3.357,-12.085,10.132
0.999,-0.119,-0.110,-1.892,-9.399,11.353
0.970,-0.122,-0.141,0.916,-7.874,10.559
0.954,-0.106,-0.157,3.418,-6.714,10.132
0.939,-0.083,-0.173,8.789,-7.996,10.376
0.934,-0.017,-0.190,12.329,-10.498,10.254
0.944,0.020,-0.182,15.381,-14.648,11.475
0.986,0.082,-0.141,13.855,-14.526,11.841
0.996,0.095,-0.129,9.216,-10.010,6.348
0.991,0.084,-0.126,6.348,-7.690,2.991
0.992,0.062,-0.124,3.235,-6.165,1.160
0.995,0.033,-0.125,-0.366,-4.272,-0.916
0.996,-0.015,-0.130,-0.427,-3.906,-1.160
0.994,-0.028,-0.131,1.587,-4.333,-1.160
0.989,-0.033,-0.132,2.747,-4.333,-2.014
0.991,-0.026,-0.131,1.831,-2.136,-2.625
0.989,-0.013,-0.141,-0.427,-0.427,-2.075
0.982,-0.018,-0.151,-2.258,0.732,-1.465
0.976,-0.026,-0.162,-1.465,-0.305,-0.244
0.980,-0.027,-0.165,1.282,-2.197,0.061
0.986,-0.013,-0.158,6.836,-6.165,0.854

1.229,0.725,-0.904,-100.891,-102.966,231.384
1.256,0.835,-0.962,-155.640,-110.535,272.217
1.302,1.043,-1.091,-165.649,-106.201,271.484
1.309,1.138,-1.206,-165.344,-94.788,236.999
1.248,1.274,-1.477,-162.415,-98.755,218.933
1.179,1.292,-1.557,-160.828,-114.868,210.876
1.109,1.234,-1.576,-153.198,-174.194,202.148
0.946,0.978,-1.529,-134.949,-203.979,185.242
0.791,0.891,-1.495,-112.610,-239.319,149.597
0.229,0.713,-1.388,-116.150,-245.605,127.991
-0.228,0.538,-1.246,-118.835,-267.639,81.787
-1.136,0.073,-0.665,-114.014,-289.429,88.074
-1.616,-0.095,-0.241,-98.694,-309.937,109.314
-2.747,-0.265,1.059,-46.082,-346.497,163.452
-3.251,-0.155,2.071,-19.531,-369.141,186.218
-3.340,0.202,3.225,-3.479,-457.214,212.341
-0.776,1.782,4.000,-25.574,-509.705,268.738
2.072,2.560,4.000,-50.659,-387.268,269.287
2.894,0.304,2.395,-73.120,-85.510,60.974
-0.114,-1.282,0.102,-165.161,249.939,-29.175
-2.374,-0.178,-1.572,-152.893,102.051,129.517
-1.307,0.870,-0.601,-61.523,-61.707,179.016
-0.166,1.082,0.419,91.492,-129.639,20.874
0.842,0.479,1.161,82.764,-86.243,-7.263
0.677,0.635,1.104,17.395,-3.174,28.198
0.310,1.019,0.877,-0.793,17.334,30.273
0.214,0.931,0.751,-0.183,32.654,9.583
0.075,0.852,0.585,20.325,53.894,-34.546
-0.161,0.875,0.312,20.691,51.147,-36.804
-0.221,0.894,0.288,15.747,29.846,-29.968
-0.186,1.004,0.363,15.320,16.907,-27.710
-0.071,1.044,0.472,28.748,4.761,-42.175
0.112,1.061,0.679,37.964,12.817,-58.655
0.180,1.050,0.721,45.532,28.259,-74.158
0.232,1.010,0.744,67.322,60.974,-106.201
0.196,0.963,0.741,80.933,75.195,-124.695
0.121,0.982,0.667,96.375,91.309,-149.658
0.068,0.948,0.513,102.417,91.187,-159.546
0.082,0.875,0.493,111.023,88.501,-172.363
0.095,0.794,0.497,131.775,82.825,-202.698
0.158,0.672,0.566,139.771,78.064,-209.045
0.232,0.656,0.617,142.395,68.115,-191.528
0.452,0.710,0.724,138.611,64.270,-172.058
0.556,0.732,0.783,134.827,62.439,-155.396
0.623,0.708,0.846,142.395,73.120,-158.813
0.583,0.555,0.956,154.968,84.717,-176.575
0.540,0.463,0.968,168.518,100.342,-197.449
0.622,0.285,0.950,161.011,100.525,-183.289
0.743,0.249,0.950,147.705,98.022,-153.442
0.842,0.255,0.963,132.019,100.342,-105.164
0.834,0.323,1.026,137.695,108.704,-104.736
0.746,0.346,1.009,160.461,131.531,-141.602
0.585,0.175,0.787,166.626,138.672,-165.039
0.594,0.003,0.602,149.292,132.996,-162.659
0.671,-0.285,0.397,128.479,121.094,-127.747
0.674,-0.335,0.395,109.680,108.398,-84.473
0.654,-0.311,0.395,101.990,97.290,-33.264
0.595,-0.150,0.355,110.840,97.107,-33.997
0.612,-0.059,0.309,122.559,88.318,-57.251
0.756,-0.012,0.254,111.877,83.069,-62.744
0.808,-0.090,0.281,92.407,82.275,-61.157
0.816,-0.222,0.326,77.209,86.121,-62.256
0.782,-0.351,0.337,94.788,86.426,-72.632
0.784,-0.287,0.319,124.512,86.426,-91.553
0.832,-0.209,0.142,106.812,91.492,-82.153
0.835,-0.285,-0.004,21.912,103.943,-15.564
0.833,-0.527,-0.163,-9.155,102.051,21.057
0.827,-0.550,-0.164,-19.775,92.529,51.880
0.841,-0.466,-0.153,3.540,61.096,86.182
0.948,-0.096,-0.192,23.499,45.105,85.754
1.043,0.088,-0.200,48.584,25.146,63.843
1.186,0.335,-0.245,46.387,25.696,51.636
1.212,0.339,-0.244,9.399,39.795,39.246
1.153,0.173,-0.189,-13.489,49.438,41.870
1.096,0.102,-0.192,-28.076,55.542,46.265
1.056,0.068,-0.216,-25.513,50.842,42.969
1.048,0.042,-0.236,-15.259,43.884,33.936
1.058,0.028,-0.219,0.610,32.776,16.479
1.099,0.006,-0.115,-2.869,31.677,17.395
1.101,0.006,-0.085,-14.282,35.400,24.292
1.082,-0.005,-0.086,-48.950,48.096,42.542
1.052,-0.110,-0.089,-61.096,51.819,48.889
1.057,-0.182,-0.101,-48.157,51.636,40.222
1.043,-0.257,-0.116,-25.330,46.509,25.269
1.048,-0.266,-0.086,-5.737,33.936,27.527
1.122,-0.250,0.018,-18.921,31.494,52.979
1.146,-0.167,0.015,-33.081,34.790,75.928
1.144,-0.060,-0.043,-31.616,51.636,73.059
1.059,0.135,-0.267,-15.198,56.580,53.040
1.004,0.216,-0.359,20.020,48.706,19.226
0.957,0.314,-0.393,27.527,41.687,14.648
0.967,0.325,-0.364,24.719,35.156,17.517
0.959,0.346,-0.370,19.165,35.767,17.517
0.933,0.349,-0.398,15.076,35.400,14.465
0.910,0.345,-0.410,18.127,24.841,1.770
0.904,0.304,-0.357,17.883,17.700,-1.953
0.912,0.247,-0.317,-2.869,13.245,8.423
0.906,0.102,-0.296,-14.526,13.855,17.395
0.889,0.066,-0.305,-18.311,12.329,21.790
0.875,0.061,-0.305,-3.357,0.732,13.489
0.893,0.084,-0.242,6.836,-6.470,6.836
0.915,0.094,-0.198,19.531,-15.381,-3.357
0.950,0.108,-0.140,19.653,-16.541,-5.859
0.960,0.104,-0.126,2.686,-14.160,3.967
0.984,0.077,-0.101,-4.456,-12.756,9.338
1.004,0.074,-0.087,-3.662,-12.024,8.362
1.019,0.081,-0.076,9.277,-10.986,-4.456
1.027,0.084,-0.071,12.878,-9.949,-8.972
1.030,0.080,-0.072,7.996,-6.775,-6.836
1.026,0.069,-0.093,2.197,-4.272,-2.197
1.014,0.067,-0.112,-2.808,-0.427,2.197
0.993,0.078,-0.137,-1.587,-0.061,1.343
0.981,0.087,-0.144,0.671,-0.366,-0.793
0.972,0.089,-0.148,2.808,-2.014,-4.517
0.972,0.069,-0.143,1.709,-2.747,-4.150
0.975,0.058,-0.139,-0.122,-2.930,-2.991
0.975,0.045,-0.132,-0.061,-2.991,-2.441
0.974,0.046,-0.128,2.625,-3.723,-1.709
0.970,0.055,-0.126,5.493,-4.150,-3.723

1.384,0.808,-0.659,-100.647,-61.951,114.258
1.434,0.830,-0.754,-179.016,-68.359,176.880
1.531,0.753,-0.980,-200.012,-76.599,197.876
1.558,0.679,-1.139,-186.951,-101.440,210.083
1.576,0.642,-1.472,-169.617,-123.169,220.337
1.510,0.751,-1.542,-158.081,-152.588,242.187
1.428,0.863,-1.518,-139.648,-222.473,277.222
1.359,0.917,-1.342,-119.995,-242.371,258.301
1.251,0.914,-1.260,-122.498,-225.403,188.354
0.539,0.655,-1.098,-148.621,-204.590,161.255
-0.120,0.316,-0.975,-143.860,-200.256,141.174
-1.674,-0.400,-0.531,-95.520,-225.037,147.705
-2.454,-0.560,-0.003,-32.654,-260.925,156.372
-3.210,-0.537,0.937,71.228,-371.643,161.377
-3.794,0.085,3.553,79.285,-442.871,172.424
-2.776,1.113,4.000,42.969,-578.735,318.542
2.914,3.523,4.000,23.865,-539.978,358.765
3.954,2.558,3.549,-92.102,92.651,-84.290
-1.467,-1.750,-0.689,-195.740,344.727,-211.243
-2.906,-1.615,-2.236,-245.850,298.706,-75.684
-2.328,-0.097,-2.033,-42.419,-88.684,140.747
-0.135,1.323,0.377,62.317,-150.208,56.641
0.597,0.882,1.060,53.223,-95.093,-27.039
0.640,0.715,1.197,7.751,-44.922,-4.089
0.381,0.879,1.029,-59.387,10.498,29.175
-0.064,0.633,0.410,-55.237,28.198,7.507
-0.216,0.519,0.139,-28.442,36.682,-19.592
-0.244,0.548,0.067,25.269,16.541,-32.898
-0.156,0.782,0.185,34.363,3.479,-30.090
-0.052,0.825,0.303,12.695,-18.311,-14.038
0.231,0.858,0.690,7.019,-18.005,-12.695
0.284,0.915,0.782,19.165,16.602,-40.405
0.249,0.950,0.700,29.114,37.842,-61.584
0.226,0.928,0.639,43.457,54.504,-82.336
0.204,0.913,0.590,72.327,70.618,-113.586
0.177,0.891,0.518,79.102,72.266,-124.023
0.176,0.861,0.503,84.534,69.885,-133.484
0.231,0.756,0.510,90.881,67.505,-136.475
0.256,0.671,0.530,101.135,66.589,-143.555
0.268,0.567,0.556,132.812,72.632,-171.082
0.268,0.410,0.604,150.818,77.515,-182.617
0.302,0.403,0.631,176.453,80.811,-180.115
0.476,0.472,0.749,186.096,83.008,-175.354
0.542,0.510,0.812,199.585,88.623,-179.321
0.583,0.521,0.841,236.389,104.919,-215.271
0.654,0.432,0.842,242.981,111.572,-229.309
0.694,0.357,0.863,207.336,113.342,-202.454
0.808,0.216,0.961,176.697,111.816,-165.894
0.852,0.176,1.019,131.287,114.807,-96.741
0.882,0.208,1.022,126.221,122.192,-82.336
0.854,0.240,0.954,130.310,131.531,-84.534
0.838,0.236,0.822,142.151,142.700,-113.281
0.831,0.080,0.548,135.315,142.761,-116.699
0.806,-0.001,0.510,92.834,130.188,-78.552
0.758,-0.026,0.485,73.242,123.047,-51.636
0.775,-0.004,0.452,63.049,116.516,-31.555
0.829,0.031,0.391,75.745,101.685,-22.156
0.957,0.109,0.244,88.074,93.689,-28.625
0.994,0.112,0.214,80.322,87.219,-32.043
0.958,0.012,0.250,60.974,91.370,-24.780
0.896,-0.066,0.289,42.542,96.924,-16.541
0.845,-0.126,0.317,37.842,98.206,-10.925
0.823,-0.088,0.211,48.523,92.834,-10.681
0.849,-0.052,0.161,53.833,75.989,-4.578
0.866,-0.035,0.188,45.105,72.205,0.061
0.835,-0.050,0.238,12.878,77.515,10.986
0.772,-0.093,0.194,-5.127,82.886,18.799
0.765,-0.111,0.086,-18.311,86.121,26.062
0.765,-0.126,-0.029,-14.648,80.566,24.963
0.751,-0.130,-0.143,-2.075,72.510,19.409
0.741,-0.103,-0.147,13.672,57.983,21.179
0.723,-0.006,-0.120,13.123,56.152,27.344
0.733,0.033,-0.108,5.615,62.073,26.978
0.821,0.074,-0.186,1.892,65.125,18.677
0.880,0.052,-0.234,-1.038,63.904,9.033
0.944,0.020,-0.259,-4.333,49.927,3.784
1.075,-0.023,-0.245,-6.348,41.260,8.362
1.127,-0.032,-0.237,-4.150,31.250,8.606
1.199,-0.040,-0.259,-0.732,31.982,2.991
1.224,-0.045,-0.281,-0.122,37.781,-1.404
1.237,-0.048,-0.312,-9.460,54.749,3.113
1.207,-0.026,-0.458,-13.672,57.556,11.536
1.200,-0.009,-0.507,-3.418,45.593,19.592
1.214,0.080,-0.507,12.146,37.170,17.334
1.221,0.161,-0.477,37.415,21.301,15.137
1.223,0.319,-0.410,37.109,20.386,17.395
1.216,0.355,-0.371,28.687,23.010,19.409
1.204,0.358,-0.341,5.371,29.175,19.653
1.175,0.265,-0.296,-4.028,31.189,18.494
1.145,0.195,-0.282,-8.545,33.569,12.573
1.048,0.086,-0.279,-3.479,32.166,8.911
0.998,0.058,-0.281,3.845,27.771,6.653
0.954,0.045,-0.278,16.785,13.733,6.226
0.900,0.062,-0.226,19.531,9.460,5.493
0.885,0.077,-0.197,11.963,13.062,0.366
0.847,0.058,-0.200,2.563,16.174,0.793
0.835,0.029,-0.208,-8.362,14.343,5.920
0.844,-0.002,-0.189,-5.249,9.644,4.578
0.862,0.002,-0.168,0.854,3.906,0.793
0.880,0.011,-0.149,10.132,-5.737,-5.066
0.903,0.023,-0.138,10.498,-8.362,-6.409
0.921,0.016,-0.134,5.676,-9.827,-6.897
0.954,0.007,-0.126,3.357,-9.277,-5.371
0.969,0.015,-0.126,1.221,-8.301,-0.793
1.008,0.032,-0.110,2.014,-8.118,-0.854
1.026,0.034,-0.101,4.822,-7.507,-3.784
1.032,0.037,-0.102,10.742,-4.028,-12.146
1.036,0.044,-0.118,9.644,-2.319,-12.207
1.043,0.054,-0.121,-0.366,0.427,-2.441
1.054,0.076,-0.129,-5.127,2.197,1.709
1.039,0.080,-0.149,-7.568,4.578,2.625
1.019,0.068,-0.170,-6.348,7.202,-2.808
0.990,0.023,-0.192,-3.723,6.653,-5.798
0.982,0.015,-0.197,0.366,4.272,-5.676
0.983,0.035,-0.188,0.732,3.174,-3.113
0.985,0.045,-0.184,0.854,3.357,-2.808
0.974,0.028,-0.191,0.488,3.967,-4.517
0.966,0.009,-0.195,-0.732,4.028,-4.761
0.964,-0.003,-0.191,-3.723,2.258,1.038

1.286,0.828,-0.907,-32.532,-112.549,223.206
1.335,1.008,-0.990,-104.980,-118.164,281.799
1.371,1.281,-1.165,-129.028,-99.365,264.465
1.309,1.347,-1.341,-187.134,-61.584,201.050
1.246,1.191,-1.714,-230.041,-66.284,205.139
1.277,1.010,-1.874,-253.723,-91.064,224.609
1.179,0.658,-2.153,-190.491,-179.077,237.244
0.988,0.551,-2.185,-130.737,-233.704,231.873
0.789,0.538,-2.020,-40.527,-339.783,220.520
0.527,0.732,-1.214,-25.452,-351.501,203.857
0.237,0.652,-0.797,-55.054,-272.217,110.168
-1.149,-0.248,-0.103,-78.674,-236.389,80.505
-1.917,-0.827,0.295,-23.437,-285.400,138.672
-2.936,-0.971,1.566,48.889,-346.985,174.377
-3.051,-0.541,2.466,90.210,-410.034,197.021
-2.883,0.038,3.403,5.005,-507.019,283.386
-0.330,2.343,4.000,-54.443,-546.265,368.408
2.417,3.052,4.000,-39.734,-288.696,186.523
1.736,-0.266,1.182,-16.052,77.026,-126.343
-1.427,-1.633,-1.266,-82.092,248.352,-128.540
-2.078,0.067,-1.545,-93.506,16.296,91.797
-0.767,1.075,-0.071,-42.114,-147.400,167.236
0.115,1.231,0.906,88.745,-104.553,-22.644
0.461,0.237,0.901,91.370,-43.091,-72.876
0.322,0.197,0.751,28.870,-9.705,-1.709
0.206,0.820,0.879,4.150,-10.193,30.701
0.159,1.025,0.916,4.822,-0.732,26.550
0.072,1.112,0.795,48.889,31.860,-35.400
-0.025,1.007,0.528,55.359,37.720,-52.979
-0.028,1.029,0.535,36.438,32.043,-52.734
0.061,1.158,0.689,19.287,26.184,-49.011
0.154,1.095,0.783,4.028,31.860,-65.247
0.214,0.938,0.865,13.123,45.471,-76.477
0.232,0.917,0.850,28.015,56.152,-85.754
0.270,0.923,0.837,56.702,67.932,-100.830
0.332,0.925,0.868,64.209,73.059,-107.544
0.360,0.904,0.882,72.083,88.501,-121.277
0.385,0.839,0.837,76.111,98.450,-132.568
0.365,0.803,0.786,80.078,106.995,-144.531
0.343,0.751,0.743,87.341,110.413,-153.137
0.336,0.643,0.698,93.445,107.849,-150.024
0.363,0.610,0.695,110.962,101.746,-143.433
0.435,0.544,0.740,119.934,100.525,-142.700
0.490,0.528,0.753,126.831,100.098,-143.250
0.565,0.529,0.753,131.897,97.656,-138.855
0.685,0.525,0.776,131.287,97.290,-135.132
0.715,0.491,0.805,133.972,101.562,-137.024
0.707,0.367,0.888,139.404,107.483,-144.775
0.680,0.281,0.916,147.095,119.019,-157.227
0.684,0.081,0.852,145.691,122.253,-152.832
0.689,-0.009,0.828,142.883,123.840,-141.357
0.685,-0.068,0.820,145.508,124.878,-113.159
0.653,-0.081,0.795,151.001,126.831,-106.567
0.638,-0.056,0.758,152.771,132.385,-108.337
0.661,-0.057,0.678,142.822,134.521,-104.187
0.688,-0.095,0.617,127.686,135.376,-93.079
0.705,-0.146,0.526,104.187,127.991,-61.951
0.680,-0.169,0.406,101.257,118.774,-45.776
0.665,-0.096,0.370,90.393,103.149,-8.423
0.650,0.112,0.248,72.144,100.342,12.024
0.674,0.145,0.165,18.921,99.731,40.710
0.760,0.010,-0.047,2.380,97.473,44.739
0.783,-0.049,-0.121,3.418,90.393,42.847
0.783,-0.026,-0.138,41.931,63.904,29.663
0.812,0.180,-0.039,57.251,51.392,22.705
0.858,0.271,0.032,57.251,47.791,2.930
0.976,0.276,0.029,40.649,59.082,-9.644
1.007,0.153,-0.054,14.038,74.158,-16.907
0.990,0.005,-0.110,-32.898,86.365,0.000
0.924,-0.172,-0.105,-38.635,80.505,15.442
0.909,-0.180,-0.075,-3.418,61.218,12.329
0.933,-0.054,-0.048,28.870,52.917,-9.949
0.981,0.030,-0.080,61.584,49.744,-43.762
1.035,0.129,-0.171,47.363,56.946,-43.335
1.006,0.104,-0.190,16.663,66.101,-33.997
0.973,0.023,-0.186,-32.593,72.021,-18.311
0.930,-0.125,-0.203,-28.625,68.665,-22.095
0.942,-0.136,-0.284,9.155,57.861,-42.419
1.011,-0.139,-0.407,24.902,52.490,-52.551
1.034,-0.142,-0.443,16.357,49.072,-44.861
1.090,-0.180,-0.421,-10.376,47.546,-19.836
1.127,-0.197,-0.370,-37.231,45.166,10.010
1.152,-0.185,-0.350,-44.678,40.955,39.063
1.164,-0.088,-0.368,-28.320,37.170,36.133
1.152,-0.012,-0.388,7.202,28.625,25.452
1.103,0.130,-0.442,18.433,26.062,20.935
1.081,0.172,-0.450,19.226,20.081,20.996
1.060,0.164,-0.424,7.446,18.188,28.870
1.056,0.117,-0.395,-4.089,16.785,35.583
1.046,0.081,-0.369,-1.526,13.916,32.959
1.016,0.074,-0.309,7.324,10.437,28.137
1.006,0.086,-0.264,17.700,1.038,24.658
1.019,0.117,-0.170,16.785,-1.770,25.818
1.034,0.142,-0.139,12.939,-0.916,25.696
1.038,0.164,-0.133,1.404,11.169,11.292
0.988,0.114,-0.166,-4.089,18.005,-0.305
0.951,0.058,-0.189,-11.536,23.071,-10.925
0.906,-0.021,-0.234,-13.733,20.996,-8.667
0.896,-0.042,-0.249,-11.475,13.367,-4.517
0.885,-0.067,-0.280,-5.859,9.094,-5.737
0.883,-0.078,-0.294,5.127,-0.183,-7.385
0.915,-0.052,-0.265,9.094,-5.310,-5.676
0.944,-0.006,-0.234,11.414,-9.216,-3.174
0.966,0.039,-0.209,5.066,-10.620,2.625
1.001,0.061,-0.169,-2.258,-9.766,6.348
1.012,0.046,-0.160,-8.911,-6.775,6.836
1.014,0.008,-0.164,-5.066,-5.981,1.953
1.008,-0.004,-0.167,7.202,-7.812,-7.629
1.003,-0.012,-0.153,8.972,-8.728,-7.874
1.000,-0.014,-0.149,4.822,-7.935,-3.723
0.996,-0.026,-0.151,-12.146,-3.357,9.583
0.992,-0.046,-0.156,-15.076,-2.075,12.512
0.996,-0.041,-0.155,-4.578,-2.380,4.822
1.010,-0.020,-0.143,3.296,-3.479,-2.014
1.018,-0.020,-0.130,13.672,-5.554,-11.963
1.015,-0.029,-0.127,14.465,-5.371,-12.756
1.007,-0.031,-0.139,2.930,-3.174,-1.221
0.994,-0.030,-0.159,-5.615,-1.526,7.751
0.990,-0.023,-0.165,-10.681,-0.427,13.611

1.465,0.464,-1.067,-7.568,-59.814,173.523
1.398,0.696,-1.206,-55.420,-93.445,265.076
1.191,1.132,-1.496,-86.853,-106.995,288.208
1.089,1.224,-1.616,-137.329,-130.859,272.888
0.883,1.114,-1.665,-148.071,-148.865,248.047
0.792,0.994,-1.625,-149.841,-173.523,223.572
0.744,0.843,-1.594,-131.531,-236.511,179.932
0.726,0.481,-1.476,-114.258,-268.921,163.391
0.667,0.427,-1.372,-72.693,-314.819,158.020
0.543,0.555,-1.158,-57.251,-329.224,155.273
0.565,0.567,-1.065,-51.147,-330.688,141.296
0.434,0.483,-0.807,-54.932,-306.946,137.695
-0.119,0.517,-0.687,-51.819,-267.578,124.756
-1.083,0.546,-0.544,-34.302,-252.136,31.067
-2.870,0.523,0.474,-50.171,-304.687,32.043
